timestamp_ms,qw,qx,qy,qz,gx,gy,gz,ax,ay,az,gnss_fix_type,numSV,gnss_valid,gnss_num_sats,lat,lon,hmsl,gnss_hacc_m,gnss_vacc_m,gnss_vel_n_mps,gnss_vel_e_mps,gnss_vel_d_mps,gnss_sacc_mps,M1,M2,M3,M4,ekf_pwm_mean,ekf_is_armed,ekf_ground_motor_mode,motor_output_allowed,motor_on_detected,alignment_active,alignment_done,ekf_ready,gnss_ref_set,gnss_ref_ready,gnss_ref_age_ms,ekf_dt,ekf_dt_clamped,ekf_pos_n,ekf_pos_e,ekf_pos_d,ekf_vel_n,ekf_vel_e,ekf_vel_d,ekf_p_cov_n,ekf_p_cov_e,ekf_p_cov_d,ekf_v_cov_n,ekf_v_cov_e,ekf_v_cov_d,ekf_qw,ekf_qx,ekf_qy,ekf_qz,ekf_roll_deg,ekf_pitch_deg,ekf_yaw_deg,roll_deg,pitch_deg,yaw_deg,ekf_accel_body_x,ekf_accel_body_y,ekf_accel_body_z,ekf_accel_nav_n,ekf_accel_nav_e,ekf_accel_nav_d,acc_ned_n,acc_ned_e,acc_ned_d,accel_norm,accel_bias_x,accel_bias_y,accel_bias_z,gyro_bias_x,gyro_bias_y,gyro_bias_z,ekf_bias_acc_x,ekf_bias_acc_y,ekf_bias_acc_z,ekf_bias_gyro_x,ekf_bias_gyro_y,ekf_bias_gyro_z,ekf_gnss_pos_n,ekf_gnss_pos_e,ekf_gnss_pos_d,ekf_innov_pos_n,ekf_innov_pos_e,ekf_innov_pos_d,ekf_innov_vel_n,ekf_innov_vel_e,ekf_innov_vel_d,ekf_R_applied_gnss_pos_n,ekf_R_applied_gnss_pos_e,ekf_R_applied_gnss_pos_d,ekf_R_applied_gnss_vel_n,ekf_R_applied_gnss_vel_e,ekf_R_applied_gnss_vel_d,ekf_sigma_applied_gnss_pos_n,ekf_sigma_applied_gnss_pos_e,ekf_sigma_applied_gnss_pos_d,ekf_sigma_applied_gnss_vel_n,ekf_sigma_applied_gnss_vel_e,ekf_sigma_applied_gnss_vel_d,gnss_correction_accepted,gnss_update_executed,gnss_new_measurement,gnss_velocity_used,gnss_position_gate_passed,gnss_update_dt,gnss_last_update_age_ms,gnss_innov_gate_reject_count,ekf_zupt_applied,ekf_zupt_allowed,zupt_active,stationary_detected,delta_vel_gnss_update_n,delta_vel_gnss_update_e,delta_vel_gnss_update_d,delta_vel_zupt_update_n,delta_vel_zupt_update_e,delta_vel_zupt_update_d,tether_disturbance_candidate,raw_acc_norm_g,acc_ned_h,ekf_speed_h,delta_vel_gnss_update_xy,gyro_raw_norm,gyro_lpf_norm,gyro_corrected_norm,imu_fw_roll_deg,imu_fw_pitch_deg,ekf_imu_roll_diff_deg,ekf_imu_pitch_diff_deg,pitch_diff_rate_deg_s,accel_rotation_source,accel_rotation_source_used
11621,0.911595,-0.015602,0.017002,-0.410443,0.000000,0.000000,0.000000,0.018000,0.041000,-0.994000,0,0,0,0,0.0000000,0.0000000,0.000,0.000000,0.000000,0.000000,0.000000,0.000000,0.000000,1000,1000,1000,1000,1000.000000,0,0,0,0,1,0,0,0,0,0,0.000000,0,0.000000,0.000000,0.000000,0.000000,0.000000,0.000000,0.000000,0.000000,0.000000,0.000000,0.000000,0.000000,0.000000,0.000000,0.000000,0.000000,0.000000,0.000000,0.000000,0.000000,0.000000,0.000000,0.000000,0.000000,0.000000,0.000000,0.000000,0.000000,0.000000,0.000000,0.000000,9.757696,0.000000,0.000000,0.000000,0.000000,0.000000,0.000000,0.000000,0.000000,0.000000,0.000000,0.000000,0.000000,0.000000,0.000000,0.000000,0.000000,0.000000,0.000000,0.000000,0.000000,0.000000,0.000000,0.000000,0.000000,0.000000,0.000000,0.000000,0.000000,0.000000,0.000000,0.000000,0.000000,0.000000,0,0,0,0,0,0.000000,0,0,0,1,0,0,0.000000,0.000000,0.000000,0.000000,0.000000,0.000000,0,0.995008,0.000000,0.000000,0.000000,0.000000,0.000000,0.000000,-2.430540,1.042285,2.430540,-1.042285,0.000000,0,0
11665,0.911595,-0.015602,0.017002,-0.410443,0.000000,0.000000,0.000000,0.016000,0.041000,-0.995000,3,21,1,21,37.5418112,127.0795304,28.646,0.888000,2.334000,0.000000,-0.007000,0.000000,0.108000,1000,1000,1000,1000,1000.000000,0,0,0,0,1,0,0,0,0,28,0.000000,0,0.000000,0.000000,0.000000,0.000000,0.000000,0.000000,0.000000,0.000000,0.000000,0.000000,0.000000,0.000000,0.000000,0.000000,0.000000,0.000000,0.000000,0.000000,0.000000,0.000000,0.000000,0.000000,0.000000,0.000000,0.000000,0.000000,0.000000,0.000000,0.000000,0.000000,0.000000,9.767158,0.000000,0.000000,0.000000,0.000000,0.000000,0.000000,0.000000,0.000000,0.000000,0.000000,0.000000,0.000000,0.000000,0.000000,0.000000,0.000000,0.000000,0.000000,0.000000,0.000000,0.000000,0.000000,0.000000,0.000000,0.000000,0.000000,0.000000,0.000000,0.000000,0.000000,0.000000,0.000000,0.000000,0,0,0,0,0,0.000000,0,0,0,1,0,0,0.000000,0.000000,0.000000,0.000000,0.000000,0.000000,0,0.995973,0.000000,0.000000,0.000000,0.000000,0.000000,0.000000,-2.430540,1.042285,2.430540,-1.042285,0.000000,0,0
11709,0.911595,-0.015602,0.017002,-0.410443,0.000000,0.000000,0.000000,0.017000,0.041000,-0.995000,3,21,1,21,37.5418112,127.0795304,28.646,0.888000,2.334000,0.000000,-0.007000,0.000000,0.108000,1000,1000,1000,1000,1000.000000,0,0,0,0,1,0,0,0,0,72,0.000000,0,0.000000,0.000000,0.000000,0.000000,0.000000,0.000000,0.000000,0.000000,0.000000,0.000000,0.000000,0.000000,0.000000,0.000000,0.000000,0.000000,0.000000,0.000000,0.000000,0.000000,0.000000,0.000000,0.000000,0.000000,0.000000,0.000000,0.000000,0.000000,0.000000,0.000000,0.000000,9.767320,0.000000,0.000000,0.000000,0.000000,0.000000,0.000000,0.000000,0.000000,0.000000,0.000000,0.000000,0.000000,0.000000,0.000000,0.000000,0.000000,0.000000,0.000000,0.000000,0.000000,0.000000,0.000000,0.000000,0.000000,0.000000,0.000000,0.000000,0.000000,0.000000,0.000000,0.000000,0.000000,0.000000,0,0,0,0,0,0.000000,0,0,0,1,0,0,0.000000,0.000000,0.000000,0.000000,0.000000,0.000000,0,0.995989,0.000000,0.000000,0.000000,0.000000,0.000000,0.000000,-2.430540,1.042285,2.430540,-1.042285,0.000000,0,0
11753,0.911595,-0.015602,0.017002,-0.410443,0.000000,0.000000,0.000000,0.016000,0.041000,-0.994000,3,21,1,21,37.5418112,127.0795304,28.646,0.888000,2.334000,0.000000,-0.007000,0.000000,0.108000,1000,1000,1000,1000,1000.000000,0,0,0,0,1,0,0,0,0,116,0.000000,0,0.000000,0.000000,0.000000,0.000000,0.000000,0.000000,0.000000,0.000000,0.000000,0.000000,0.000000,0.000000,0.000000,0.000000,0.000000,0.000000,0.000000,0.000000,0.000000,0.000000,0.000000,0.000000,0.000000,0.000000,0.000000,0.000000,0.000000,0.000000,0.000000,0.000000,0.000000,9.757361,0.000000,0.000000,0.000000,0.000000,0.000000,0.000000,0.000000,0.000000,0.000000,0.000000,0.000000,0.000000,0.000000,0.000000,0.000000,0.000000,0.000000,0.000000,0.000000,0.000000,0.000000,0.000000,0.000000,0.000000,0.000000,0.000000,0.000000,0.000000,0.000000,0.000000,0.000000,0.000000,0.000000,0,0,0,0,0,0.000000,0,0,0,1,0,0,0.000000,0.000000,0.000000,0.000000,0.000000,0.000000,0,0.994974,0.000000,0.000000,0.000000,0.000000,0.000000,0.000000,-2.430540,1.042285,2.430540,-1.042285,0.000000,0,0
11780,0.911595,-0.015602,0.017002,-0.410443,0.000000,0.000000,0.000000,0.017000,0.043000,-0.996000,3,21,1,21,37.5418111,127.0795302,28.610,0.880000,2.314000,0.013000,-0.004000,0.014000,0.124000,1000,1000,1000,1000,1000.000000,0,0,0,0,1,0,0,0,0,142,0.000000,0,0.000000,0.000000,0.000000,0.000000,0.000000,0.000000,0.000000,0.000000,0.000000,0.000000,0.000000,0.000000,0.000000,0.000000,0.000000,0.000000,0.000000,0.000000,0.000000,0.000000,0.000000,0.000000,0.000000,0.000000,0.000000,0.000000,0.000000,0.000000,0.000000,0.000000,0.000000,9.777943,0.000000,0.000000,0.000000,0.000000,0.000000,0.000000,0.000000,0.000000,0.000000,0.000000,0.000000,0.000000,0.000000,0.000000,0.000000,0.000000,0.000000,0.000000,0.000000,0.000000,0.000000,0.000000,0.000000,0.000000,0.000000,0.000000,0.000000,0.000000,0.000000,0.000000,0.000000,0.000000,0.000000,0,0,0,0,0,0.000000,0,0,0,1,0,0,0.000000,0.000000,0.000000,0.000000,0.000000,0.000000,0,0.997073,0.000000,0.000000,0.000000,0.000000,0.000000,0.000000,-2.430540,1.042285,2.430540,-1.042285,0.000000,0,0
11832,0.911595,-0.015602,0.017002,-0.410443,0.000000,0.000000,0.000000,0.016000,0.041000,-0.995000,3,21,1,21,37.5418111,127.0795302,28.610,0.880000,2.314000,0.013000,-0.004000,0.014000,0.124000,1000,1000,1000,1000,1000.000000,0,0,0,0,1,0,0,0,0,195,0.000000,0,0.000000,0.000000,0.000000,0.000000,0.000000,0.000000,0.000000,0.000000,0.000000,0.000000,0.000000,0.000000,0.000000,0.000000,0.000000,0.000000,0.000000,0.000000,0.000000,0.000000,0.000000,0.000000,0.000000,0.000000,0.000000,0.000000,0.000000,0.000000,0.000000,0.000000,0.000000,9.767158,0.000000,0.000000,0.000000,0.000000,0.000000,0.000000,0.000000,0.000000,0.000000,0.000000,0.000000,0.000000,0.000000,0.000000,0.000000,0.000000,0.000000,0.000000,0.000000,0.000000,0.000000,0.000000,0.000000,0.000000,0.000000,0.000000,0.000000,0.000000,0.000000,0.000000,0.000000,0.000000,0.000000,0,0,0,0,0,0.000000,0,0,0,1,0,0,0.000000,0.000000,0.000000,0.000000,0.000000,0.000000,0,0.995973,0.000000,0.000000,0.000000,0.000000,0.000000,0.000000,-2.430540,1.042285,2.430540,-1.042285,0.000000,0,0
11880,0.911595,-0.015602,0.017002,-0.410443,0.000000,0.000000,0.000000,0.017000,0.041000,-0.994000,3,21,1,21,37.5418111,127.0795302,28.610,0.880000,2.314000,0.013000,-0.004000,0.014000,0.124000,1000,1000,1000,1000,1000.000000,0,0,0,0,1,0,0,0,0,242,0.000000,0,0.000000,0.000000,0.000000,0.000000,0.000000,0.000000,0.000000,0.000000,0.000000,0.000000,0.000000,0.000000,0.000000,0.000000,0.000000,0.000000,0.000000,0.000000,0.000000,0.000000,0.000000,0.000000,0.000000,0.000000,0.000000,0.000000,0.000000,0.000000,0.000000,0.000000,0.000000,9.757524,0.000000,0.000000,0.000000,0.000000,0.000000,0.000000,0.000000,0.000000,0.000000,0.000000,0.000000,0.000000,0.000000,0.000000,0.000000,0.000000,0.000000,0.000000,0.000000,0.000000,0.000000,0.000000,0.000000,0.000000,0.000000,0.000000,0.000000,0.000000,0.000000,0.000000,0.000000,0.000000,0.000000,0,0,0,0,0,0.000000,0,0,0,1,0,0,0.000000,0.000000,0.000000,0.000000,0.000000,0.000000,0,0.994990,0.000000,0.000000,0.000000,0.000000,0.000000,0.000000,-2.430540,1.042285,2.430540,-1.042285,0.000000,0,0
11903,0.911595,-0.015602,0.017002,-0.410443,0.000000,0.000000,0.000000,0.016000,0.043000,-0.997000,3,21,1,21,37.5418111,127.0795301,28.586,0.873000,2.295000,0.003000,0.007000,0.009000,0.128000,1000,1000,1000,1000,1000.000000,0,0,0,0,1,0,0,0,0,266,0.000000,0,0.000000,0.000000,0.000000,0.000000,0.000000,0.000000,0.000000,0.000000,0.000000,0.000000,0.000000,0.000000,0.000000,0.000000,0.000000,0.000000,0.000000,0.000000,0.000000,0.000000,0.000000,0.000000,0.000000,0.000000,0.000000,0.000000,0.000000,0.000000,0.000000,0.000000,0.000000,9.787578,0.000000,0.000000,0.000000,0.000000,0.000000,0.000000,0.000000,0.000000,0.000000,0.000000,0.000000,0.000000,0.000000,0.000000,0.000000,0.000000,0.000000,0.000000,0.000000,0.000000,0.000000,0.000000,0.000000,0.000000,0.000000,0.000000,0.000000,0.000000,0.000000,0.000000,0.000000,0.000000,0.000000,0,0,0,0,0,0.000000,0,0,0,1,0,0,0.000000,0.000000,0.000000,0.000000,0.000000,0.000000,0,0.998055,0.000000,0.000000,0.000000,0.000000,0.000000,0.000000,-2.430540,1.042285,2.430540,-1.042285,0.000000,0,0
11967,0.911595,-0.015602,0.017002,-0.410443,0.000000,0.000000,0.000000,0.017000,0.042000,-0.998000,3,21,1,21,37.5418111,127.0795301,28.586,0.873000,2.295000,0.003000,0.007000,0.009000,0.128000,1000,1000,1000,1000,1000.000000,0,0,0,0,1,0,0,0,0,330,0.000000,0,0.000000,0.000000,0.000000,0.000000,0.000000,0.000000,0.000000,0.000000,0.000000,0.000000,0.000000,0.000000,0.000000,0.000000,0.000000,0.000000,0.000000,0.000000,0.000000,0.000000,0.000000,0.000000,0.000000,0.000000,0.000000,0.000000,0.000000,0.000000,0.000000,0.000000,0.000000,9.797119,0.000000,0.000000,0.000000,0.000000,0.000000,0.000000,0.000000,0.000000,0.000000,0.000000,0.000000,0.000000,0.000000,0.000000,0.000000,0.000000,0.000000,0.000000,0.000000,0.000000,0.000000,0.000000,0.000000,0.000000,0.000000,0.000000,0.000000,0.000000,0.000000,0.000000,0.000000,0.000000,0.000000,0,0,0,0,0,0.000000,0,0,0,1,0,0,0.000000,0.000000,0.000000,0.000000,0.000000,0.000000,0,0.999028,0.000000,0.000000,0.000000,0.000000,0.000000,0.000000,-2.430540,1.042285,2.430540,-1.042285,0.000000,0,0
11991,0.911595,-0.015602,0.017002,-0.410443,0.000000,0.000000,0.000000,0.017000,0.040000,-0.994000,3,21,1,21,37.5418111,127.0795301,28.586,0.873000,2.295000,0.003000,0.007000,0.009000,0.128000,1000,1000,1000,1000,1000.000000,0,0,0,0,1,0,0,0,0,354,0.000000,0,0.000000,0.000000,0.000000,0.000000,0.000000,0.000000,0.000000,0.000000,0.000000,0.000000,0.000000,0.000000,0.000000,0.000000,0.000000,0.000000,0.000000,0.000000,0.000000,0.000000,0.000000,0.000000,0.000000,0.000000,0.000000,0.000000,0.000000,0.000000,0.000000,0.000000,0.000000,9.757124,0.000000,0.000000,0.000000,0.000000,0.000000,0.000000,0.000000,0.000000,0.000000,0.000000,0.000000,0.000000,0.000000,0.000000,0.000000,0.000000,0.000000,0.000000,0.000000,0.000000,0.000000,0.000000,0.000000,0.000000,0.000000,0.000000,0.000000,0.000000,0.000000,0.000000,0.000000,0.000000,0.000000,0,0,0,0,0,0.000000,0,0,0,1,0,0,0.000000,0.000000,0.000000,0.000000,0.000000,0.000000,0,0.994950,0.000000,0.000000,0.000000,0.000000,0.000000,0.000000,-2.430540,1.042285,2.430540,-1.042285,0.000000,0,0
12035,0.911595,-0.015602,0.017002,-0.410443,0.000000,0.000000,0.000000,0.016000,0.042000,-0.997000,3,21,1,21,37.5418111,127.0795300,28.566,0.866000,2.277000,0.000000,-0.006000,-0.004000,0.069000,1000,1000,1000,1000,1000.000000,0,0,0,0,1,0,0,0,0,398,0.000000,0,0.000000,0.000000,0.000000,0.000000,0.000000,0.000000,0.000000,0.000000,0.000000,0.000000,0.000000,0.000000,0.000000,0.000000,0.000000,0.000000,0.000000,0.000000,0.000000,0.000000,0.000000,0.000000,0.000000,0.000000,0.000000,0.000000,0.000000,0.000000,0.000000,0.000000,0.000000,9.787159,0.000000,0.000000,0.000000,0.000000,0.000000,0.000000,0.000000,0.000000,0.000000,0.000000,0.000000,0.000000,0.000000,0.000000,0.000000,0.000000,0.000000,0.000000,0.000000,0.000000,0.000000,0.000000,0.000000,0.000000,0.000000,0.000000,0.000000,0.000000,0.000000,0.000000,0.000000,0.000000,0.000000,0,0,0,0,0,0.000000,0,0,0,1,0,0,0.000000,0.000000,0.000000,0.000000,0.000000,0.000000,0,0.998012,0.000000,0.000000,0.000000,0.000000,0.000000,0.000000,-2.430540,1.042285,2.430540,-1.042285,0.000000,0,0
12059,0.911595,-0.015602,0.017002,-0.410443,0.000000,0.000000,0.000000,0.018000,0.044000,-0.994000,3,21,1,21,37.5418111,127.0795300,28.566,0.866000,2.277000,0.000000,-0.006000,-0.004000,0.069000,1000,1000,1000,1000,1000.000000,0,0,0,0,1,0,0,0,0,422,0.000000,0,0.000000,0.000000,0.000000,0.000000,0.000000,0.000000,0.000000,0.000000,0.000000,0.000000,0.000000,0.000000,0.000000,0.000000,0.000000,0.000000,0.000000,0.000000,0.000000,0.000000,0.000000,0.000000,0.000000,0.000000,0.000000,0.000000,0.000000,0.000000,0.000000,0.000000,0.000000,9.758952,0.000000,0.000000,0.000000,0.000000,0.000000,0.000000,0.000000,0.000000,0.000000,0.000000,0.000000,0.000000,0.000000,0.000000,0.000000,0.000000,0.000000,0.000000,0.000000,0.000000,0.000000,0.000000,0.000000,0.000000,0.000000,0.000000,0.000000,0.000000,0.000000,0.000000,0.000000,0.000000,0.000000,0,0,0,0,0,0.000000,0,0,0,1,0,0,0.000000,0.000000,0.000000,0.000000,0.000000,0.000000,0,0.995136,0.000000,0.000000,0.000000,0.000000,0.000000,0.000000,-2.430540,1.042285,2.430540,-1.042285,0.000000,0,0
12107,0.911595,-0.015602,0.017002,-0.410443,0.000000,0.000000,0.000000,0.016000,0.042000,-0.994000,3,21,1,21,37.5418111,127.0795300,28.566,0.866000,2.277000,0.000000,-0.006000,-0.004000,0.069000,1000,1000,1000,1000,1000.000000,0,0,0,0,1,0,0,0,0,470,0.000000,0,0.000000,0.000000,0.000000,0.000000,0.000000,0.000000,0.000000,0.000000,0.000000,0.000000,0.000000,0.000000,0.000000,0.000000,0.000000,0.000000,0.000000,0.000000,0.000000,0.000000,0.000000,0.000000,0.000000,0.000000,0.000000,0.000000,0.000000,0.000000,0.000000,0.000000,0.000000,9.757771,0.000000,0.000000,0.000000,0.000000,0.000000,0.000000,0.000000,0.000000,0.000000,0.000000,0.000000,0.000000,0.000000,0.000000,0.000000,0.000000,0.000000,0.000000,0.000000,0.000000,0.000000,0.000000,0.000000,0.000000,0.000000,0.000000,0.000000,0.000000,0.000000,0.000000,0.000000,0.000000,0.000000,0,0,0,0,0,0.000000,0,0,0,1,0,0,0.000000,0.000000,0.000000,0.000000,0.000000,0.000000,0,0.995016,0.000000,0.000000,0.000000,0.000000,0.000000,0.000000,-2.430540,1.042285,2.430540,-1.042285,0.000000,0,0
12152,0.911595,-0.015602,0.017002,-0.410443,0.000000,0.000000,0.000000,0.018000,0.041000,-0.995000,3,21,1,21,37.5418110,127.0795299,28.545,0.859000,2.259000,-0.013000,-0.007000,-0.012000,0.130000,1000,1000,1000,1000,1000.000000,0,0,0,0,1,0,0,0,0,515,0.000000,0,0.000000,0.000000,0.000000,0.000000,0.000000,0.000000,0.000000,0.000000,0.000000,0.000000,0.000000,0.000000,0.000000,0.000000,0.000000,0.000000,0.000000,0.000000,0.000000,0.000000,0.000000,0.000000,0.000000,0.000000,0.000000,0.000000,0.000000,0.000000,0.000000,0.000000,0.000000,9.767492,0.000000,0.000000,0.000000,0.000000,0.000000,0.000000,0.000000,0.000000,0.000000,0.000000,0.000000,0.000000,0.000000,0.000000,0.000000,0.000000,0.000000,0.000000,0.000000,0.000000,0.000000,0.000000,0.000000,0.000000,0.000000,0.000000,0.000000,0.000000,0.000000,0.000000,0.000000,0.000000,0.000000,0,0,0,0,0,0.000000,0,0,0,1,0,0,0.000000,0.000000,0.000000,0.000000,0.000000,0.000000,0,0.996007,0.000000,0.000000,0.000000,0.000000,0.000000,0.000000,-2.430540,1.042285,2.430540,-1.042285,0.000000,0,0
12180,0.911595,-0.015602,0.017002,-0.410443,0.000000,0.000000,0.000000,0.019000,0.042000,-0.995000,3,21,1,21,37.5418110,127.0795299,28.545,0.859000,2.259000,-0.013000,-0.007000,-0.012000,0.130000,1000,1000,1000,1000,1000.000000,0,0,0,0,1,0,0,0,0,542,0.000000,0,0.000000,0.000000,0.000000,0.000000,0.000000,0.000000,0.000000,0.000000,0.000000,0.000000,0.000000,0.000000,0.000000,0.000000,0.000000,0.000000,0.000000,0.000000,0.000000,0.000000,0.000000,0.000000,0.000000,0.000000,0.000000,0.000000,0.000000,0.000000,0.000000,0.000000,0.000000,9.768084,0.000000,0.000000,0.000000,0.000000,0.000000,0.000000,0.000000,0.000000,0.000000,0.000000,0.000000,0.000000,0.000000,0.000000,0.000000,0.000000,0.000000,0.000000,0.000000,0.000000,0.000000,0.000000,0.000000,0.000000,0.000000,0.000000,0.000000,0.000000,0.000000,0.000000,0.000000,0.000000,0.000000,0,0,0,0,0,0.000000,0,0,0,1,0,0,0.000000,0.000000,0.000000,0.000000,0.000000,0.000000,0,0.996067,0.000000,0.000000,0.000000,0.000000,0.000000,0.000000,-2.430540,1.042285,2.430540,-1.042285,0.000000,0,0
12250,0.911595,-0.015602,0.017002,-0.410443,0.000000,0.000000,0.000000,0.018000,0.042000,-0.994000,3,21,1,21,37.5418110,127.0795299,28.545,0.859000,2.259000,-0.013000,-0.007000,-0.012000,0.130000,1000,1000,1000,1000,1000.000000,0,0,0,0,1,0,0,0,0,613,0.000000,0,0.000000,0.000000,0.000000,0.000000,0.000000,0.000000,0.000000,0.000000,0.000000,0.000000,0.000000,0.000000,0.000000,0.000000,0.000000,0.000000,0.000000,0.000000,0.000000,0.000000,0.000000,0.000000,0.000000,0.000000,0.000000,0.000000,0.000000,0.000000,0.000000,0.000000,0.000000,9.758105,0.000000,0.000000,0.000000,0.000000,0.000000,0.000000,0.000000,0.000000,0.000000,0.000000,0.000000,0.000000,0.000000,0.000000,0.000000,0.000000,0.000000,0.000000,0.000000,0.000000,0.000000,0.000000,0.000000,0.000000,0.000000,0.000000,0.000000,0.000000,0.000000,0.000000,0.000000,0.000000,0.000000,0,0,0,0,0,0.000000,0,0,0,1,0,0,0.000000,0.000000,0.000000,0.000000,0.000000,0.000000,0,0.995050,0.000000,0.000000,0.000000,0.000000,0.000000,0.000000,-2.430540,1.042285,2.430540,-1.042285,0.000000,0,0
12274,0.911595,-0.015602,0.017002,-0.410443,0.000000,0.000000,0.000000,0.018000,0.042000,-0.995000,3,21,1,21,37.5418110,127.0795298,28.519,0.852000,2.242000,0.008000,0.003000,-0.002000,0.092000,1000,1000,1000,1000,1000.000000,0,0,0,0,1,0,0,0,0,637,0.000000,0,0.000000,0.000000,0.000000,0.000000,0.000000,0.000000,0.000000,0.000000,0.000000,0.000000,0.000000,0.000000,0.000000,0.000000,0.000000,0.000000,0.000000,0.000000,0.000000,0.000000,0.000000,0.000000,0.000000,0.000000,0.000000,0.000000,0.000000,0.000000,0.000000,0.000000,0.000000,9.767901,0.000000,0.000000,0.000000,0.000000,0.000000,0.000000,0.000000,0.000000,0.000000,0.000000,0.000000,0.000000,0.000000,0.000000,0.000000,0.000000,0.000000,0.000000,0.000000,0.000000,0.000000,0.000000,0.000000,0.000000,0.000000,0.000000,0.000000,0.000000,0.000000,0.000000,0.000000,0.000000,0.000000,0,0,0,0,0,0.000000,0,0,0,1,0,0,0.000000,0.000000,0.000000,0.000000,0.000000,0.000000,0,0.996049,0.000000,0.000000,0.000000,0.000000,0.000000,0.000000,-2.430540,1.042285,2.430540,-1.042285,0.000000,0,0
12301,0.911595,-0.015602,0.017002,-0.410443,0.000000,0.000000,0.000000,0.018000,0.041000,-0.995000,3,21,1,21,37.5418110,127.0795298,28.519,0.852000,2.242000,0.008000,0.003000,-0.002000,0.092000,1000,1000,1000,1000,1000.000000,0,0,0,0,1,0,0,0,0,664,0.000000,0,0.000000,0.000000,0.000000,0.000000,0.000000,0.000000,0.000000,0.000000,0.000000,0.000000,0.000000,0.000000,0.000000,0.000000,0.000000,0.000000,0.000000,0.000000,0.000000,0.000000,0.000000,0.000000,0.000000,0.000000,0.000000,0.000000,0.000000,0.000000,0.000000,0.000000,0.000000,9.767492,0.000000,0.000000,0.000000,0.000000,0.000000,0.000000,0.000000,0.000000,0.000000,0.000000,0.000000,0.000000,0.000000,0.000000,0.000000,0.000000,0.000000,0.000000,0.000000,0.000000,0.000000,0.000000,0.000000,0.000000,0.000000,0.000000,0.000000,0.000000,0.000000,0.000000,0.000000,0.000000,0.000000,0,0,0,0,0,0.000000,0,0,0,1,0,0,0.000000,0.000000,0.000000,0.000000,0.000000,0.000000,0,0.996007,0.000000,0.000000,0.000000,0.000000,0.000000,0.000000,-2.430540,1.042285,2.430540,-1.042285,0.000000,0,0
12345,0.911595,-0.015602,0.017002,-0.410443,0.000000,0.000000,0.000000,0.018000,0.044000,-0.994000,3,21,1,21,37.5418110,127.0795298,28.519,0.852000,2.242000,0.008000,0.003000,-0.002000,0.092000,1000,1000,1000,1000,1000.000000,0,0,0,0,1,0,0,0,0,708,0.000000,0,0.000000,0.000000,0.000000,0.000000,0.000000,0.000000,0.000000,0.000000,0.000000,0.000000,0.000000,0.000000,0.000000,0.000000,0.000000,0.000000,0.000000,0.000000,0.000000,0.000000,0.000000,0.000000,0.000000,0.000000,0.000000,0.000000,0.000000,0.000000,0.000000,0.000000,0.000000,9.758952,0.000000,0.000000,0.000000,0.000000,0.000000,0.000000,0.000000,0.000000,0.000000,0.000000,0.000000,0.000000,0.000000,0.000000,0.000000,0.000000,0.000000,0.000000,0.000000,0.000000,0.000000,0.000000,0.000000,0.000000,0.000000,0.000000,0.000000,0.000000,0.000000,0.000000,0.000000,0.000000,0.000000,0,0,0,0,0,0.000000,0,0,0,1,0,0,0.000000,0.000000,0.000000,0.000000,0.000000,0.000000,0,0.995136,0.000000,0.000000,0.000000,0.000000,0.000000,0.000000,-2.430540,1.042285,2.430540,-1.042285,0.000000,0,0
12389,0.911595,-0.015602,0.017002,-0.410443,0.000000,0.000000,0.000000,0.018000,0.042000,-0.995000,3,21,1,21,37.5418110,127.0795297,28.477,0.845000,2.225000,0.010000,-0.007000,0.019000,0.128000,1000,1000,1000,1000,1000.000000,0,0,0,0,1,0,0,0,0,752,0.000000,0,0.000000,0.000000,0.000000,0.000000,0.000000,0.000000,0.000000,0.000000,0.000000,0.000000,0.000000,0.000000,0.000000,0.000000,0.000000,0.000000,0.000000,0.000000,0.000000,0.000000,0.000000,0.000000,0.000000,0.000000,0.000000,0.000000,0.000000,0.000000,0.000000,0.000000,0.000000,9.767901,0.000000,0.000000,0.000000,0.000000,0.000000,0.000000,0.000000,0.000000,0.000000,0.000000,0.000000,0.000000,0.000000,0.000000,0.000000,0.000000,0.000000,0.000000,0.000000,0.000000,0.000000,0.000000,0.000000,0.000000,0.000000,0.000000,0.000000,0.000000,0.000000,0.000000,0.000000,0.000000,0.000000,0,0,0,0,0,0.000000,0,0,0,1,0,0,0.000000,0.000000,0.000000,0.000000,0.000000,0.000000,0,0.996049,0.000000,0.000000,0.000000,0.000000,0.000000,0.000000,-2.430540,1.042285,2.430540,-1.042285,0.000000,0,0
12433,0.911595,-0.015602,0.017002,-0.410443,0.000000,0.000000,0.000000,0.018000,0.042000,-0.995000,3,21,1,21,37.5418110,127.0795297,28.477,0.845000,2.225000,0.010000,-0.007000,0.019000,0.128000,1000,1000,1000,1000,1000.000000,0,0,0,0,1,0,0,0,0,796,0.000000,0,0.000000,0.000000,0.000000,0.000000,0.000000,0.000000,0.000000,0.000000,0.000000,0.000000,0.000000,0.000000,0.000000,0.000000,0.000000,0.000000,0.000000,0.000000,0.000000,0.000000,0.000000,0.000000,0.000000,0.000000,0.000000,0.000000,0.000000,0.000000,0.000000,0.000000,0.000000,9.767901,0.000000,0.000000,0.000000,0.000000,0.000000,0.000000,0.000000,0.000000,0.000000,0.000000,0.000000,0.000000,0.000000,0.000000,0.000000,0.000000,0.000000,0.000000,0.000000,0.000000,0.000000,0.000000,0.000000,0.000000,0.000000,0.000000,0.000000,0.000000,0.000000,0.000000,0.000000,0.000000,0.000000,0,0,0,0,0,0.000000,0,0,0,1,0,0,0.000000,0.000000,0.000000,0.000000,0.000000,0.000000,0,0.996049,0.000000,0.000000,0.000000,0.000000,0.000000,0.000000,-2.430540,1.042285,2.430540,-1.042285,0.000000,0,0
12480,0.911595,-0.015602,0.017002,-0.410443,0.000000,0.000000,0.000000,0.016000,0.043000,-0.996000,3,21,1,21,37.5418110,127.0795297,28.477,0.845000,2.225000,0.010000,-0.007000,0.019000,0.128000,1000,1000,1000,1000,1000.000000,0,0,0,0,1,0,0,0,0,842,0.000000,0,0.000000,0.000000,0.000000,0.000000,0.000000,0.000000,0.000000,0.000000,0.000000,0.000000,0.000000,0.000000,0.000000,0.000000,0.000000,0.000000,0.000000,0.000000,0.000000,0.000000,0.000000,0.000000,0.000000,0.000000,0.000000,0.000000,0.000000,0.000000,0.000000,0.000000,0.000000,9.777781,0.000000,0.000000,0.000000,0.000000,0.000000,0.000000,0.000000,0.000000,0.000000,0.000000,0.000000,0.000000,0.000000,0.000000,0.000000,0.000000,0.000000,0.000000,0.000000,0.000000,0.000000,0.000000,0.000000,0.000000,0.000000,0.000000,0.000000,0.000000,0.000000,0.000000,0.000000,0.000000,0.000000,0,0,0,0,0,0.000000,0,0,0,1,0,0,0.000000,0.000000,0.000000,0.000000,0.000000,0.000000,0,0.997056,0.000000,0.000000,0.000000,0.000000,0.000000,0.000000,-2.430540,1.042285,2.430540,-1.042285,0.000000,0,0
12545,0.911595,-0.015602,0.017002,-0.410443,0.000000,0.000000,0.000000,0.017000,0.041000,-0.995000,3,21,1,21,37.5418110,127.0795296,28.449,0.838000,2.208000,-0.001000,0.003000,0.018000,0.101000,1000,1000,1000,1000,1000.000000,0,0,0,0,1,0,0,0,0,908,0.000000,0,0.000000,0.000000,0.000000,0.000000,0.000000,0.000000,0.000000,0.000000,0.000000,0.000000,0.000000,0.000000,0.000000,0.000000,0.000000,0.000000,0.000000,0.000000,0.000000,0.000000,0.000000,0.000000,0.000000,0.000000,0.000000,0.000000,0.000000,0.000000,0.000000,0.000000,0.000000,9.767320,0.000000,0.000000,0.000000,0.000000,0.000000,0.000000,0.000000,0.000000,0.000000,0.000000,0.000000,0.000000,0.000000,0.000000,0.000000,0.000000,0.000000,0.000000,0.000000,0.000000,0.000000,0.000000,0.000000,0.000000,0.000000,0.000000,0.000000,0.000000,0.000000,0.000000,0.000000,0.000000,0.000000,0,0,0,0,0,0.000000,0,0,0,1,0,0,0.000000,0.000000,0.000000,0.000000,0.000000,0.000000,0,0.995989,0.000000,0.000000,0.000000,0.000000,0.000000,0.000000,-2.430540,1.042285,2.430540,-1.042285,0.000000,0,0
12590,0.911595,-0.015602,0.017002,-0.410443,0.000000,0.000000,0.000000,0.021000,0.042000,-0.994000,3,21,1,21,37.5418110,127.0795296,28.449,0.838000,2.208000,-0.001000,0.003000,0.018000,0.101000,1000,1000,1000,1000,1000.000000,0,0,0,0,1,0,0,0,0,952,0.000000,0,0.000000,0.000000,0.000000,0.000000,0.000000,0.000000,0.000000,0.000000,0.000000,0.000000,0.000000,0.000000,0.000000,0.000000,0.000000,0.000000,0.000000,0.000000,0.000000,0.000000,0.000000,0.000000,0.000000,0.000000,0.000000,0.000000,0.000000,0.000000,0.000000,0.000000,0.000000,9.758681,0.000000,0.000000,0.000000,0.000000,0.000000,0.000000,0.000000,0.000000,0.000000,0.000000,0.000000,0.000000,0.000000,0.000000,0.000000,0.000000,0.000000,0.000000,0.000000,0.000000,0.000000,0.000000,0.000000,0.000000,0.000000,0.000000,0.000000,0.000000,0.000000,0.000000,0.000000,0.000000,0.000000,0,0,0,0,0,0.000000,0,0,0,1,0,0,0.000000,0.000000,0.000000,0.000000,0.000000,0.000000,0,0.995109,0.000000,0.000000,0.000000,0.000000,0.000000,0.000000,-2.430540,1.042285,2.430540,-1.042285,0.000000,0,0
12643,0.911595,-0.015602,0.017002,-0.410443,0.000000,0.000000,0.000000,0.016000,0.036000,-0.995000,3,21,1,21,37.5418110,127.0795295,28.429,0.832000,2.191000,0.021000,-0.012000,0.010000,0.100000,1000,1000,1000,1000,1000.000000,0,0,0,0,1,0,0,0,0,1005,0.000000,0,0.000000,0.000000,0.000000,0.000000,0.000000,0.000000,0.000000,0.000000,0.000000,0.000000,0.000000,0.000000,0.000000,0.000000,0.000000,0.000000,0.000000,0.000000,0.000000,0.000000,0.000000,0.000000,0.000000,0.000000,0.000000,0.000000,0.000000,0.000000,0.000000,0.000000,0.000000,9.765262,0.000000,0.000000,0.000000,0.000000,0.000000,0.000000,0.000000,0.000000,0.000000,0.000000,0.000000,0.000000,0.000000,0.000000,0.000000,0.000000,0.000000,0.000000,0.000000,0.000000,0.000000,0.000000,0.000000,0.000000,0.000000,0.000000,0.000000,0.000000,0.000000,0.000000,0.000000,0.000000,0.000000,0,0,0,0,0,0.000000,0,0,0,1,0,0,0.000000,0.000000,0.000000,0.000000,0.000000,0.000000,0,0.995780,0.000000,0.000000,0.000000,0.000000,0.000000,0.000000,-2.430540,1.042285,2.430540,-1.042285,0.000000,0,0
12667,0.911595,-0.015602,0.017002,-0.410443,0.000000,0.000000,0.000000,0.015000,0.041000,-0.995000,3,21,1,21,37.5418110,127.0795295,28.429,0.832000,2.191000,0.021000,-0.012000,0.010000,0.100000,1000,1000,1000,1000,1000.000000,0,0,0,0,1,0,0,0,0,1030,0.000000,0,0.000000,0.000000,0.000000,0.000000,0.000000,0.000000,0.000000,0.000000,0.000000,0.000000,0.000000,0.000000,0.000000,0.000000,0.000000,0.000000,0.000000,0.000000,0.000000,0.000000,0.000000,0.000000,0.000000,0.000000,0.000000,0.000000,0.000000,0.000000,0.000000,0.000000,0.000000,9.767005,0.000000,0.000000,0.000000,0.000000,0.000000,0.000000,0.000000,0.000000,0.000000,0.000000,0.000000,0.000000,0.000000,0.000000,0.000000,0.000000,0.000000,0.000000,0.000000,0.000000,0.000000,0.000000,0.000000,0.000000,0.000000,0.000000,0.000000,0.000000,0.000000,0.000000,0.000000,0.000000,0.000000,0,0,0,0,0,0.000000,0,0,0,1,0,0,0.000000,0.000000,0.000000,0.000000,0.000000,0.000000,0,0.995957,0.000000,0.000000,0.000000,0.000000,0.000000,0.000000,-2.430540,1.042285,2.430540,-1.042285,0.000000,0,0
12711,0.911593,-0.015702,0.017002,-0.410442,-0.300000,0.100000,0.000000,0.014000,0.043000,-0.975000,3,21,1,21,37.5418110,127.0795295,28.429,0.832000,2.191000,0.021000,-0.012000,0.010000,0.100000,1000,1000,1000,1000,1000.000000,0,0,0,0,1,0,0,0,0,1074,0.000000,0,0.000000,0.000000,0.000000,0.000000,0.000000,0.000000,0.000000,0.000000,0.000000,0.000000,0.000000,0.000000,0.000000,0.000000,0.000000,0.000000,0.000000,0.000000,0.000000,0.000000,0.000000,0.000000,0.000000,0.000000,0.000000,0.000000,0.000000,0.000000,0.000000,0.000000,0.000000,9.571763,0.000000,0.000000,0.000000,0.000000,0.000000,0.000000,0.000000,0.000000,0.000000,0.000000,0.000000,0.000000,0.000000,0.000000,0.000000,0.000000,0.000000,0.000000,0.000000,0.000000,0.000000,0.000000,0.000000,0.000000,0.000000,0.000000,0.000000,0.000000,0.000000,0.000000,0.000000,0.000000,0.000000,0,0,0,0,0,0.000000,0,0,0,1,0,0,0.000000,0.000000,0.000000,0.000000,0.000000,0.000000,0,0.976048,0.000000,0.000000,0.000000,0.000000,0.000000,0.000000,-2.440988,1.037577,2.440988,-1.037577,0.106998,0,0
12755,0.911556,-0.015701,0.017001,-0.410525,0.000000,0.000000,0.000000,0.011000,0.055000,-1.009000,3,21,1,21,37.5418110,127.0795295,28.429,0.832000,2.191000,0.021000,-0.012000,0.010000,0.100000,1000,1000,1000,1000,1000.000000,0,0,0,0,1,0,0,0,0,1118,0.000000,0,0.000000,0.000000,0.000000,0.000000,0.000000,0.000000,0.000000,0.000000,0.000000,0.000000,0.000000,0.000000,0.000000,0.000000,0.000000,0.000000,0.000000,0.000000,0.000000,0.000000,0.000000,0.000000,0.000000,0.000000,0.000000,0.000000,0.000000,0.000000,0.000000,0.000000,0.000000,9.910186,0.000000,0.000000,0.000000,0.000000,0.000000,0.000000,0.000000,0.000000,0.000000,0.000000,0.000000,0.000000,0.000000,0.000000,0.000000,0.000000,0.000000,0.000000,0.000000,0.000000,0.000000,0.000000,0.000000,0.000000,0.000000,0.000000,0.000000,0.000000,0.000000,0.000000,0.000000,0.000000,0.000000,0,0,0,0,0,0.000000,0,0,0,1,0,0,0.000000,0.000000,0.000000,0.000000,0.000000,0.000000,0,1.010558,0.000000,0.000000,0.000000,0.000000,0.000000,0.000000,-2.440981,1.037311,2.440981,-1.037311,0.006028,0,0
12799,0.911556,-0.015701,0.017001,-0.410525,0.000000,0.000000,0.000000,0.015000,0.031000,-1.003000,3,21,1,21,37.5418110,127.0795294,28.391,0.826000,2.176000,-0.011000,0.007000,0.010000,0.077000,1000,1000,1000,1000,1000.000000,0,0,0,0,1,0,0,0,0,1162,0.000000,0,0.000000,0.000000,0.000000,0.000000,0.000000,0.000000,0.000000,0.000000,0.000000,0.000000,0.000000,0.000000,0.000000,0.000000,0.000000,0.000000,0.000000,0.000000,0.000000,0.000000,0.000000,0.000000,0.000000,0.000000,0.000000,0.000000,0.000000,0.000000,0.000000,0.000000,0.000000,9.841866,0.000000,0.000000,0.000000,0.000000,0.000000,0.000000,0.000000,0.000000,0.000000,0.000000,0.000000,0.000000,0.000000,0.000000,0.000000,0.000000,0.000000,0.000000,0.000000,0.000000,0.000000,0.000000,0.000000,0.000000,0.000000,0.000000,0.000000,0.000000,0.000000,0.000000,0.000000,0.000000,0.000000,0,0,0,0,0,0.000000,0,0,0,1,0,0,0.000000,0.000000,0.000000,0.000000,0.000000,0.000000,0,1.003591,0.000000,0.000000,0.000000,0.000000,0.000000,0.000000,-2.440981,1.037311,2.440981,-1.037311,0.000000,0,0
12843,0.911556,-0.015701,0.017001,-0.410525,0.000000,0.000000,0.000000,0.021000,0.058000,-0.992000,3,21,1,21,37.5418110,127.0795294,28.391,0.826000,2.176000,-0.011000,0.007000,0.010000,0.077000,1000,1000,1000,1000,1000.000000,0,0,0,0,1,0,0,0,0,1206,0.000000,0,0.000000,0.000000,0.000000,0.000000,0.000000,0.000000,0.000000,0.000000,0.000000,0.000000,0.000000,0.000000,0.000000,0.000000,0.000000,0.000000,0.000000,0.000000,0.000000,0.000000,0.000000,0.000000,0.000000,0.000000,0.000000,0.000000,0.000000,0.000000,0.000000,0.000000,0.000000,9.746986,0.000000,0.000000,0.000000,0.000000,0.000000,0.000000,0.000000,0.000000,0.000000,0.000000,0.000000,0.000000,0.000000,0.000000,0.000000,0.000000,0.000000,0.000000,0.000000,0.000000,0.000000,0.000000,0.000000,0.000000,0.000000,0.000000,0.000000,0.000000,0.000000,0.000000,0.000000,0.000000,0.000000,0,0,0,0,0,0.000000,0,0,0,1,0,0,0.000000,0.000000,0.000000,0.000000,0.000000,0.000000,0,0.993916,0.000000,0.000000,0.000000,0.000000,0.000000,0.000000,-2.440981,1.037311,2.440981,-1.037311,0.000000,0,0
12867,0.911556,-0.015701,0.017001,-0.410525,0.000000,0.000000,0.000000,0.018000,0.040000,-0.993000,3,21,1,21,37.5418110,127.0795294,28.391,0.826000,2.176000,-0.011000,0.007000,0.010000,0.077000,1000,1000,1000,1000,1000.000000,0,0,0,0,1,0,0,0,0,1230,0.000000,0,0.000000,0.000000,0.000000,0.000000,0.000000,0.000000,0.000000,0.000000,0.000000,0.000000,0.000000,0.000000,0.000000,0.000000,0.000000,0.000000,0.000000,0.000000,0.000000,0.000000,0.000000,0.000000,0.000000,0.000000,0.000000,0.000000,0.000000,0.000000,0.000000,0.000000,0.000000,9.747499,0.000000,0.000000,0.000000,0.000000,0.000000,0.000000,0.000000,0.000000,0.000000,0.000000,0.000000,0.000000,0.000000,0.000000,0.000000,0.000000,0.000000,0.000000,0.000000,0.000000,0.000000,0.000000,0.000000,0.000000,0.000000,0.000000,0.000000,0.000000,0.000000,0.000000,0.000000,0.000000,0.000000,0,0,0,0,0,0.000000,0,0,0,1,0,0,0.000000,0.000000,0.000000,0.000000,0.000000,0.000000,0,0.993968,0.000000,0.000000,0.000000,0.000000,0.000000,0.000000,-2.440981,1.037311,2.440981,-1.037311,0.000000,0,0
12911,0.911556,-0.015701,0.017001,-0.410525,0.000000,0.000000,0.000000,0.015000,0.041000,-0.996000,3,21,1,21,37.5418110,127.0795293,28.368,0.820000,2.159000,-0.008000,-0.008000,0.002000,0.105000,1000,1000,1000,1000,1000.000000,0,0,0,0,1,0,0,0,0,1274,0.000000,0,0.000000,0.000000,0.000000,0.000000,0.000000,0.000000,0.000000,0.000000,0.000000,0.000000,0.000000,0.000000,0.000000,0.000000,0.000000,0.000000,0.000000,0.000000,0.000000,0.000000,0.000000,0.000000,0.000000,0.000000,0.000000,0.000000,0.000000,0.000000,0.000000,0.000000,0.000000,9.776802,0.000000,0.000000,0.000000,0.000000,0.000000,0.000000,0.000000,0.000000,0.000000,0.000000,0.000000,0.000000,0.000000,0.000000,0.000000,0.000000,0.000000,0.000000,0.000000,0.000000,0.000000,0.000000,0.000000,0.000000,0.000000,0.000000,0.000000,0.000000,0.000000,0.000000,0.000000,0.000000,0.000000,0,0,0,0,0,0.000000,0,0,0,1,0,0,0.000000,0.000000,0.000000,0.000000,0.000000,0.000000,0,0.996956,0.000000,0.000000,0.000000,0.000000,0.000000,0.000000,-2.440981,1.037311,2.440981,-1.037311,0.000000,0,0
12980,0.911556,-0.015701,0.017001,-0.410525,0.000000,0.000000,0.000000,0.015000,0.044000,-0.996000,3,21,1,21,37.5418110,127.0795293,28.368,0.820000,2.159000,-0.008000,-0.008000,0.002000,0.105000,1000,1000,1000,1000,1000.000000,0,0,0,0,1,0,0,0,0,1342,0.000000,0,0.000000,0.000000,0.000000,0.000000,0.000000,0.000000,0.000000,0.000000,0.000000,0.000000,0.000000,0.000000,0.000000,0.000000,0.000000,0.000000,0.000000,0.000000,0.000000,0.000000,0.000000,0.000000,0.000000,0.000000,0.000000,0.000000,0.000000,0.000000,0.000000,0.000000,0.000000,9.778056,0.000000,0.000000,0.000000,0.000000,0.000000,0.000000,0.000000,0.000000,0.000000,0.000000,0.000000,0.000000,0.000000,0.000000,0.000000,0.000000,0.000000,0.000000,0.000000,0.000000,0.000000,0.000000,0.000000,0.000000,0.000000,0.000000,0.000000,0.000000,0.000000,0.000000,0.000000,0.000000,0.000000,0,0,0,0,0,0.000000,0,0,0,1,0,0,0.000000,0.000000,0.000000,0.000000,0.000000,0.000000,0,0.997084,0.000000,0.000000,0.000000,0.000000,0.000000,0.000000,-2.440981,1.037311,2.440981,-1.037311,0.000000,0,0
13010,0.911556,-0.015701,0.017001,-0.410525,0.000000,0.000000,0.000000,0.019000,0.040000,-0.996000,3,21,1,21,37.5418110,127.0795293,28.332,0.814000,2.144000,0.008000,0.026000,0.001000,0.106000,1000,1000,1000,1000,1000.000000,0,0,0,0,1,0,0,0,0,1373,0.000000,0,0.000000,0.000000,0.000000,0.000000,0.000000,0.000000,0.000000,0.000000,0.000000,0.000000,0.000000,0.000000,0.000000,0.000000,0.000000,0.000000,0.000000,0.000000,0.000000,0.000000,0.000000,0.000000,0.000000,0.000000,0.000000,0.000000,0.000000,0.000000,0.000000,0.000000,0.000000,9.777073,0.000000,0.000000,0.000000,0.000000,0.000000,0.000000,0.000000,0.000000,0.000000,0.000000,0.000000,0.000000,0.000000,0.000000,0.000000,0.000000,0.000000,0.000000,0.000000,0.000000,0.000000,0.000000,0.000000,0.000000,0.000000,0.000000,0.000000,0.000000,0.000000,0.000000,0.000000,0.000000,0.000000,0,0,0,0,0,0.000000,0,0,0,1,0,0,0.000000,0.000000,0.000000,0.000000,0.000000,0.000000,0,0.996984,0.000000,0.000000,0.000000,0.000000,0.000000,0.000000,-2.440981,1.037311,2.440981,-1.037311,0.000000,0,0
13034,0.911556,-0.015701,0.017001,-0.410525,0.000000,0.000000,0.000000,0.018000,0.043000,-0.994000,3,21,1,21,37.5418110,127.0795293,28.332,0.814000,2.144000,0.008000,0.026000,0.001000,0.106000,1000,1000,1000,1000,1000.000000,0,0,0,0,1,0,0,0,0,1397,0.000000,0,0.000000,0.000000,0.000000,0.000000,0.000000,0.000000,0.000000,0.000000,0.000000,0.000000,0.000000,0.000000,0.000000,0.000000,0.000000,0.000000,0.000000,0.000000,0.000000,0.000000,0.000000,0.000000,0.000000,0.000000,0.000000,0.000000,0.000000,0.000000,0.000000,0.000000,0.000000,9.758524,0.000000,0.000000,0.000000,0.000000,0.000000,0.000000,0.000000,0.000000,0.000000,0.000000,0.000000,0.000000,0.000000,0.000000,0.000000,0.000000,0.000000,0.000000,0.000000,0.000000,0.000000,0.000000,0.000000,0.000000,0.000000,0.000000,0.000000,0.000000,0.000000,0.000000,0.000000,0.000000,0.000000,0,0,0,0,0,0.000000,0,0,0,1,0,0,0.000000,0.000000,0.000000,0.000000,0.000000,0.000000,0,0.995092,0.000000,0.000000,0.000000,0.000000,0.000000,0.000000,-2.440981,1.037311,2.440981,-1.037311,0.000000,0,0
13080,0.911556,-0.015701,0.017001,-0.410525,0.000000,0.000000,0.000000,0.017000,0.041000,-0.995000,3,21,1,21,37.5418110,127.0795293,28.332,0.814000,2.144000,0.008000,0.026000,0.001000,0.106000,1000,1000,1000,1000,1000.000000,0,0,0,0,1,0,0,0,0,1442,0.000000,0,0.000000,0.000000,0.000000,0.000000,0.000000,0.000000,0.000000,0.000000,0.000000,0.000000,0.000000,0.000000,0.000000,0.000000,0.000000,0.000000,0.000000,0.000000,0.000000,0.000000,0.000000,0.000000,0.000000,0.000000,0.000000,0.000000,0.000000,0.000000,0.000000,0.000000,0.000000,9.767320,0.000000,0.000000,0.000000,0.000000,0.000000,0.000000,0.000000,0.000000,0.000000,0.000000,0.000000,0.000000,0.000000,0.000000,0.000000,0.000000,0.000000,0.000000,0.000000,0.000000,0.000000,0.000000,0.000000,0.000000,0.000000,0.000000,0.000000,0.000000,0.000000,0.000000,0.000000,0.000000,0.000000,0,0,0,0,0,0.000000,0,0,0,1,0,0,0.000000,0.000000,0.000000,0.000000,0.000000,0.000000,0,0.995989,0.000000,0.000000,0.000000,0.000000,0.000000,0.000000,-2.440981,1.037311,2.440981,-1.037311,0.000000,0,0
13107,0.911556,-0.015701,0.017001,-0.410525,0.000000,0.000000,0.000000,0.016000,0.042000,-0.995000,3,21,1,21,37.5418110,127.0795293,28.332,0.814000,2.144000,0.008000,0.026000,0.001000,0.106000,1000,1000,1000,1000,1000.000000,0,0,0,0,1,0,0,0,0,1470,0.000000,0,0.000000,0.000000,0.000000,0.000000,0.000000,0.000000,0.000000,0.000000,0.000000,0.000000,0.000000,0.000000,0.000000,0.000000,0.000000,0.000000,0.000000,0.000000,0.000000,0.000000,0.000000,0.000000,0.000000,0.000000,0.000000,0.000000,0.000000,0.000000,0.000000,0.000000,0.000000,9.767566,0.000000,0.000000,0.000000,0.000000,0.000000,0.000000,0.000000,0.000000,0.000000,0.000000,0.000000,0.000000,0.000000,0.000000,0.000000,0.000000,0.000000,0.000000,0.000000,0.000000,0.000000,0.000000,0.000000,0.000000,0.000000,0.000000,0.000000,0.000000,0.000000,0.000000,0.000000,0.000000,0.000000,0,0,0,0,0,0.000000,0,0,0,1,0,0,0.000000,0.000000,0.000000,0.000000,0.000000,0.000000,0,0.996015,0.000000,0.000000,0.000000,0.000000,0.000000,0.000000,-2.440981,1.037311,2.440981,-1.037311,0.000000,0,0
13151,0.911556,-0.015701,0.017001,-0.410525,0.000000,0.000000,0.000000,0.017000,0.040000,-0.996000,3,21,1,21,37.5418110,127.0795292,28.315,0.808000,2.128000,0.004000,0.011000,0.001000,0.113000,1000,1000,1000,1000,1000.000000,0,0,0,0,1,0,0,0,0,1514,0.000000,0,0.000000,0.000000,0.000000,0.000000,0.000000,0.000000,0.000000,0.000000,0.000000,0.000000,0.000000,0.000000,0.000000,0.000000,0.000000,0.000000,0.000000,0.000000,0.000000,0.000000,0.000000,0.000000,0.000000,0.000000,0.000000,0.000000,0.000000,0.000000,0.000000,0.000000,0.000000,9.776718,0.000000,0.000000,0.000000,0.000000,0.000000,0.000000,0.000000,0.000000,0.000000,0.000000,0.000000,0.000000,0.000000,0.000000,0.000000,0.000000,0.000000,0.000000,0.000000,0.000000,0.000000,0.000000,0.000000,0.000000,0.000000,0.000000,0.000000,0.000000,0.000000,0.000000,0.000000,0.000000,0.000000,0,0,0,0,0,0.000000,0,0,0,1,0,0,0.000000,0.000000,0.000000,0.000000,0.000000,0.000000,0,0.996948,0.000000,0.000000,0.000000,0.000000,0.000000,0.000000,-2.440981,1.037311,2.440981,-1.037311,0.000000,0,0
13195,0.911556,-0.015701,0.017001,-0.410525,0.000000,0.000000,0.000000,0.020000,0.044000,-0.993000,3,21,1,21,37.5418110,127.0795292,28.315,0.808000,2.128000,0.004000,0.011000,0.001000,0.113000,1000,1000,1000,1000,1000.000000,0,0,0,0,1,0,0,0,0,1558,0.000000,0,0.000000,0.000000,0.000000,0.000000,0.000000,0.000000,0.000000,0.000000,0.000000,0.000000,0.000000,0.000000,0.000000,0.000000,0.000000,0.000000,0.000000,0.000000,0.000000,0.000000,0.000000,0.000000,0.000000,0.000000,0.000000,0.000000,0.000000,0.000000,0.000000,0.000000,0.000000,9.749531,0.000000,0.000000,0.000000,0.000000,0.000000,0.000000,0.000000,0.000000,0.000000,0.000000,0.000000,0.000000,0.000000,0.000000,0.000000,0.000000,0.000000,0.000000,0.000000,0.000000,0.000000,0.000000,0.000000,0.000000,0.000000,0.000000,0.000000,0.000000,0.000000,0.000000,0.000000,0.000000,0.000000,0,0,0,0,0,0.000000,0,0,0,1,0,0,0.000000,0.000000,0.000000,0.000000,0.000000,0.000000,0,0.994175,0.000000,0.000000,0.000000,0.000000,0.000000,0.000000,-2.440981,1.037311,2.440981,-1.037311,0.000000,0,0
13262,0.911556,-0.015701,0.017001,-0.410525,0.000000,0.000000,0.000000,0.019000,0.044000,-1.000000,3,22,1,22,37.5418110,127.0795292,28.284,0.802000,2.113000,-0.003000,0.018000,0.017000,0.108000,1000,1000,1000,1000,1000.000000,0,0,0,0,1,0,0,0,0,1625,0.000000,0,0.000000,0.000000,0.000000,0.000000,0.000000,0.000000,0.000000,0.000000,0.000000,0.000000,0.000000,0.000000,0.000000,0.000000,0.000000,0.000000,0.000000,0.000000,0.000000,0.000000,0.000000,0.000000,0.000000,0.000000,0.000000,0.000000,0.000000,0.000000,0.000000,0.000000,0.000000,9.817907,0.000000,0.000000,0.000000,0.000000,0.000000,0.000000,0.000000,0.000000,0.000000,0.000000,0.000000,0.000000,0.000000,0.000000,0.000000,0.000000,0.000000,0.000000,0.000000,0.000000,0.000000,0.000000,0.000000,0.000000,0.000000,0.000000,0.000000,0.000000,0.000000,0.000000,0.000000,0.000000,0.000000,0,0,0,0,0,0.000000,0,0,0,1,0,0,0.000000,0.000000,0.000000,0.000000,0.000000,0.000000,0,1.001148,0.000000,0.000000,0.000000,0.000000,0.000000,0.000000,-2.440981,1.037311,2.440981,-1.037311,0.000000,0,0
13286,0.911556,-0.015701,0.017001,-0.410525,0.000000,0.000000,0.000000,0.019000,0.041000,-1.003000,3,22,1,22,37.5418110,127.0795292,28.284,0.802000,2.113000,-0.003000,0.018000,0.017000,0.108000,1000,1000,1000,1000,1000.000000,0,0,0,0,1,0,0,0,0,1649,0.000000,0,0.000000,0.000000,0.000000,0.000000,0.000000,0.000000,0.000000,0.000000,0.000000,0.000000,0.000000,0.000000,0.000000,0.000000,0.000000,0.000000,0.000000,0.000000,0.000000,0.000000,0.000000,0.000000,0.000000,0.000000,0.000000,0.000000,0.000000,0.000000,0.000000,0.000000,0.000000,9.846048,0.000000,0.000000,0.000000,0.000000,0.000000,0.000000,0.000000,0.000000,0.000000,0.000000,0.000000,0.000000,0.000000,0.000000,0.000000,0.000000,0.000000,0.000000,0.000000,0.000000,0.000000,0.000000,0.000000,0.000000,0.000000,0.000000,0.000000,0.000000,0.000000,0.000000,0.000000,0.000000,0.000000,0,0,0,0,0,0.000000,0,0,0,1,0,0,0.000000,0.000000,0.000000,0.000000,0.000000,0.000000,0,1.004017,0.000000,0.000000,0.000000,0.000000,0.000000,0.000000,-2.440981,1.037311,2.440981,-1.037311,0.000000,0,0
13310,0.911556,-0.015701,0.017001,-0.410525,0.000000,0.000000,0.000000,0.016000,0.042000,-1.004000,3,22,1,22,37.5418110,127.0795292,28.284,0.802000,2.113000,-0.003000,0.018000,0.017000,0.108000,1000,1000,1000,1000,1000.000000,0,0,0,0,1,0,0,0,0,1673,0.000000,0,0.000000,0.000000,0.000000,0.000000,0.000000,0.000000,0.000000,0.000000,0.000000,0.000000,0.000000,0.000000,0.000000,0.000000,0.000000,0.000000,0.000000,0.000000,0.000000,0.000000,0.000000,0.000000,0.000000,0.000000,0.000000,0.000000,0.000000,0.000000,0.000000,0.000000,0.000000,9.855736,0.000000,0.000000,0.000000,0.000000,0.000000,0.000000,0.000000,0.000000,0.000000,0.000000,0.000000,0.000000,0.000000,0.000000,0.000000,0.000000,0.000000,0.000000,0.000000,0.000000,0.000000,0.000000,0.000000,0.000000,0.000000,0.000000,0.000000,0.000000,0.000000,0.000000,0.000000,0.000000,0.000000,0,0,0,0,0,0.000000,0,0,0,1,0,0,0.000000,0.000000,0.000000,0.000000,0.000000,0.000000,0,1.005005,0.000000,0.000000,0.000000,0.000000,0.000000,0.000000,-2.440981,1.037311,2.440981,-1.037311,0.000000,0,0
13354,0.911556,-0.015701,0.017001,-0.410525,0.000000,0.000000,0.000000,0.016000,0.046000,-1.001000,3,22,1,22,37.5418110,127.0795292,28.284,0.802000,2.113000,-0.003000,0.018000,0.017000,0.108000,1000,1000,1000,1000,1000.000000,0,0,0,0,1,0,0,0,0,1717,0.000000,0,0.000000,0.000000,0.000000,0.000000,0.000000,0.000000,0.000000,0.000000,0.000000,0.000000,0.000000,0.000000,0.000000,0.000000,0.000000,0.000000,0.000000,0.000000,0.000000,0.000000,0.000000,0.000000,0.000000,0.000000,0.000000,0.000000,0.000000,0.000000,0.000000,0.000000,0.000000,9.828070,0.000000,0.000000,0.000000,0.000000,0.000000,0.000000,0.000000,0.000000,0.000000,0.000000,0.000000,0.000000,0.000000,0.000000,0.000000,0.000000,0.000000,0.000000,0.000000,0.000000,0.000000,0.000000,0.000000,0.000000,0.000000,0.000000,0.000000,0.000000,0.000000,0.000000,0.000000,0.000000,0.000000,0,0,0,0,0,0.000000,0,0,0,1,0,0,0.000000,0.000000,0.000000,0.000000,0.000000,0.000000,0,1.002184,0.000000,0.000000,0.000000,0.000000,0.000000,0.000000,-2.440981,1.037311,2.440981,-1.037311,0.000000,0,0
13399,0.911556,-0.015701,0.017001,-0.410525,0.000000,0.000000,0.000000,0.020000,0.043000,-0.994000,3,22,1,22,37.5418111,127.0795292,28.258,0.797000,2.098000,-0.001000,0.020000,0.018000,0.112000,1000,1000,1000,1000,1000.000000,0,0,0,0,1,0,0,0,0,1762,0.000000,0,0.000000,0.000000,0.000000,0.000000,0.000000,0.000000,0.000000,0.000000,0.000000,0.000000,0.000000,0.000000,0.000000,0.000000,0.000000,0.000000,0.000000,0.000000,0.000000,0.000000,0.000000,0.000000,0.000000,0.000000,0.000000,0.000000,0.000000,0.000000,0.000000,0.000000,0.000000,9.758898,0.000000,0.000000,0.000000,0.000000,0.000000,0.000000,0.000000,0.000000,0.000000,0.000000,0.000000,0.000000,0.000000,0.000000,0.000000,0.000000,0.000000,0.000000,0.000000,0.000000,0.000000,0.000000,0.000000,0.000000,0.000000,0.000000,0.000000,0.000000,0.000000,0.000000,0.000000,0.000000,0.000000,0,0,0,0,0,0.000000,0,0,0,1,0,0,0.000000,0.000000,0.000000,0.000000,0.000000,0.000000,0,0.995131,0.000000,0.000000,0.000000,0.000000,0.000000,0.000000,-2.440981,1.037311,2.440981,-1.037311,0.000000,0,0
13443,0.911556,-0.015701,0.017001,-0.410525,0.000000,0.000000,0.000000,0.017000,0.040000,-0.997000,3,22,1,22,37.5418111,127.0795292,28.258,0.797000,2.098000,-0.001000,0.020000,0.018000,0.112000,1000,1000,1000,1000,1000.000000,0,0,0,0,1,0,0,0,0,1806,0.000000,0,0.000000,0.000000,0.000000,0.000000,0.000000,0.000000,0.000000,0.000000,0.000000,0.000000,0.000000,0.000000,0.000000,0.000000,0.000000,0.000000,0.000000,0.000000,0.000000,0.000000,0.000000,0.000000,0.000000,0.000000,0.000000,0.000000,0.000000,0.000000,0.000000,0.000000,0.000000,9.786516,0.000000,0.000000,0.000000,0.000000,0.000000,0.000000,0.000000,0.000000,0.000000,0.000000,0.000000,0.000000,0.000000,0.000000,0.000000,0.000000,0.000000,0.000000,0.000000,0.000000,0.000000,0.000000,0.000000,0.000000,0.000000,0.000000,0.000000,0.000000,0.000000,0.000000,0.000000,0.000000,0.000000,0,0,0,0,0,0.000000,0,0,0,1,0,0,0.000000,0.000000,0.000000,0.000000,0.000000,0.000000,0,0.997947,0.000000,0.000000,0.000000,0.000000,0.000000,0.000000,-2.440981,1.037311,2.440981,-1.037311,0.000000,0,0
13467,0.911556,-0.015701,0.017001,-0.410525,0.000000,0.000000,0.000000,0.017000,0.042000,-0.996000,3,22,1,22,37.5418111,127.0795292,28.258,0.797000,2.098000,-0.001000,0.020000,0.018000,0.112000,1000,1000,1000,1000,1000.000000,0,0,0,0,1,0,0,0,0,1830,0.000000,0,0.000000,0.000000,0.000000,0.000000,0.000000,0.000000,0.000000,0.000000,0.000000,0.000000,0.000000,0.000000,0.000000,0.000000,0.000000,0.000000,0.000000,0.000000,0.000000,0.000000,0.000000,0.000000,0.000000,0.000000,0.000000,0.000000,0.000000,0.000000,0.000000,0.000000,0.000000,9.777525,0.000000,0.000000,0.000000,0.000000,0.000000,0.000000,0.000000,0.000000,0.000000,0.000000,0.000000,0.000000,0.000000,0.000000,0.000000,0.000000,0.000000,0.000000,0.000000,0.000000,0.000000,0.000000,0.000000,0.000000,0.000000,0.000000,0.000000,0.000000,0.000000,0.000000,0.000000,0.000000,0.000000,0,0,0,0,0,0.000000,0,0,0,1,0,0,0.000000,0.000000,0.000000,0.000000,0.000000,0.000000,0,0.997030,0.000000,0.000000,0.000000,0.000000,0.000000,0.000000,-2.440981,1.037311,2.440981,-1.037311,0.000000,0,0
13533,0.911556,-0.015701,0.017001,-0.410525,0.000000,0.000000,0.000000,0.018000,0.041000,-0.994000,3,22,1,22,37.5418111,127.0795292,28.237,0.791000,2.083000,0.015000,0.034000,0.011000,0.117000,1000,1000,1000,1000,1000.000000,0,0,0,0,1,0,0,0,0,1896,0.000000,0,0.000000,0.000000,0.000000,0.000000,0.000000,0.000000,0.000000,0.000000,0.000000,0.000000,0.000000,0.000000,0.000000,0.000000,0.000000,0.000000,0.000000,0.000000,0.000000,0.000000,0.000000,0.000000,0.000000,0.000000,0.000000,0.000000,0.000000,0.000000,0.000000,0.000000,0.000000,9.757696,0.000000,0.000000,0.000000,0.000000,0.000000,0.000000,0.000000,0.000000,0.000000,0.000000,0.000000,0.000000,0.000000,0.000000,0.000000,0.000000,0.000000,0.000000,0.000000,0.000000,0.000000,0.000000,0.000000,0.000000,0.000000,0.000000,0.000000,0.000000,0.000000,0.000000,0.000000,0.000000,0.000000,0,0,0,0,0,0.000000,0,0,0,1,0,0,0.000000,0.000000,0.000000,0.000000,0.000000,0.000000,0,0.995008,0.000000,0.000000,0.000000,0.000000,0.000000,0.000000,-2.440981,1.037311,2.440981,-1.037311,0.000000,0,0
13557,0.911556,-0.015701,0.017001,-0.410525,0.000000,0.000000,0.000000,0.018000,0.041000,-0.994000,3,22,1,22,37.5418111,127.0795292,28.237,0.791000,2.083000,0.015000,0.034000,0.011000,0.117000,1000,1000,1000,1000,1000.000000,0,0,0,0,1,0,0,0,0,1920,0.000000,0,0.000000,0.000000,0.000000,0.000000,0.000000,0.000000,0.000000,0.000000,0.000000,0.000000,0.000000,0.000000,0.000000,0.000000,0.000000,0.000000,0.000000,0.000000,0.000000,0.000000,0.000000,0.000000,0.000000,0.000000,0.000000,0.000000,0.000000,0.000000,0.000000,0.000000,0.000000,9.757696,0.000000,0.000000,0.000000,0.000000,0.000000,0.000000,0.000000,0.000000,0.000000,0.000000,0.000000,0.000000,0.000000,0.000000,0.000000,0.000000,0.000000,0.000000,0.000000,0.000000,0.000000,0.000000,0.000000,0.000000,0.000000,0.000000,0.000000,0.000000,0.000000,0.000000,0.000000,0.000000,0.000000,0,0,0,0,0,0.000000,0,0,0,1,0,0,0.000000,0.000000,0.000000,0.000000,0.000000,0.000000,0,0.995008,0.000000,0.000000,0.000000,0.000000,0.000000,0.000000,-2.440981,1.037311,2.440981,-1.037311,0.000000,0,0
13590,0.911556,-0.015701,0.017001,-0.410525,0.000000,0.000000,0.000000,0.018000,0.041000,-0.995000,3,22,1,22,37.5418111,127.0795292,28.237,0.791000,2.083000,0.015000,0.034000,0.011000,0.117000,1000,1000,1000,1000,1000.000000,0,0,0,0,1,0,0,0,0,1953,0.000000,0,0.000000,0.000000,0.000000,0.000000,0.000000,0.000000,0.000000,0.000000,0.000000,0.000000,0.000000,0.000000,0.000000,0.000000,0.000000,0.000000,0.000000,0.000000,0.000000,0.000000,0.000000,0.000000,0.000000,0.000000,0.000000,0.000000,0.000000,0.000000,0.000000,0.000000,0.000000,9.767492,0.000000,0.000000,0.000000,0.000000,0.000000,0.000000,0.000000,0.000000,0.000000,0.000000,0.000000,0.000000,0.000000,0.000000,0.000000,0.000000,0.000000,0.000000,0.000000,0.000000,0.000000,0.000000,0.000000,0.000000,0.000000,0.000000,0.000000,0.000000,0.000000,0.000000,0.000000,0.000000,0.000000,0,0,0,0,0,0.000000,0,0,0,1,0,0,0.000000,0.000000,0.000000,0.000000,0.000000,0.000000,0,0.996007,0.000000,0.000000,0.000000,0.000000,0.000000,0.000000,-2.440981,1.037311,2.440981,-1.037311,0.000000,0,0
13634,0.911556,-0.015701,0.017001,-0.410525,0.000000,0.000000,0.000000,0.018000,0.042000,-0.995000,3,22,1,22,37.5418111,127.0795292,28.237,0.791000,2.083000,0.015000,0.034000,0.011000,0.117000,1000,1000,1000,1000,1000.000000,0,0,0,0,1,0,0,0,0,1997,0.000000,0,0.000000,0.000000,0.000000,0.000000,0.000000,0.000000,0.000000,0.000000,0.000000,0.000000,0.000000,0.000000,0.000000,0.000000,0.000000,0.000000,0.000000,0.000000,0.000000,0.000000,0.000000,0.000000,0.000000,0.000000,0.000000,0.000000,0.000000,0.000000,0.000000,0.000000,0.000000,9.767901,0.000000,0.000000,0.000000,0.000000,0.000000,0.000000,0.000000,0.000000,0.000000,0.000000,0.000000,0.000000,0.000000,0.000000,0.000000,0.000000,0.000000,0.000000,0.000000,0.000000,0.000000,0.000000,0.000000,0.000000,0.000000,0.000000,0.000000,0.000000,0.000000,0.000000,0.000000,0.000000,0.000000,0,0,0,0,0,0.000000,0,0,0,1,0,0,0.000000,0.000000,0.000000,0.000000,0.000000,0.000000,0,0.996049,0.000000,0.000000,0.000000,0.000000,0.000000,0.000000,-2.440981,1.037311,2.440981,-1.037311,0.000000,0,0
13704,0.911556,-0.015701,0.017001,-0.410525,0.000000,0.000000,0.000000,0.018000,0.041000,-0.994000,3,22,1,22,37.5418111,127.0795291,28.205,0.786000,2.068000,-0.020000,-0.006000,0.016000,0.091000,1000,1000,1000,1000,1000.000000,0,0,0,0,1,0,0,0,0,2067,0.000000,0,0.000000,0.000000,0.000000,0.000000,0.000000,0.000000,0.000000,0.000000,0.000000,0.000000,0.000000,0.000000,0.000000,0.000000,0.000000,0.000000,0.000000,0.000000,0.000000,0.000000,0.000000,0.000000,0.000000,0.000000,0.000000,0.000000,0.000000,0.000000,0.000000,0.000000,0.000000,9.757696,0.000000,0.000000,0.000000,0.000000,0.000000,0.000000,0.000000,0.000000,0.000000,0.000000,0.000000,0.000000,0.000000,0.000000,0.000000,0.000000,0.000000,0.000000,0.000000,0.000000,0.000000,0.000000,0.000000,0.000000,0.000000,0.000000,0.000000,0.000000,0.000000,0.000000,0.000000,0.000000,0.000000,0,0,0,0,0,0.000000,0,0,0,1,0,0,0.000000,0.000000,0.000000,0.000000,0.000000,0.000000,0,0.995008,0.000000,0.000000,0.000000,0.000000,0.000000,0.000000,-2.440981,1.037311,2.440981,-1.037311,0.000000,0,0
13730,0.911556,-0.015701,0.017001,-0.410525,0.000000,0.000000,0.000000,0.017000,0.043000,-0.997000,3,22,1,22,37.5418111,127.0795291,28.205,0.786000,2.068000,-0.020000,-0.006000,0.016000,0.091000,1000,1000,1000,1000,1000.000000,0,0,0,0,1,0,0,0,0,2092,0.000000,0,0.000000,0.000000,0.000000,0.000000,0.000000,0.000000,0.000000,0.000000,0.000000,0.000000,0.000000,0.000000,0.000000,0.000000,0.000000,0.000000,0.000000,0.000000,0.000000,0.000000,0.000000,0.000000,0.000000,0.000000,0.000000,0.000000,0.000000,0.000000,0.000000,0.000000,0.000000,9.787739,0.000000,0.000000,0.000000,0.000000,0.000000,0.000000,0.000000,0.000000,0.000000,0.000000,0.000000,0.000000,0.000000,0.000000,0.000000,0.000000,0.000000,0.000000,0.000000,0.000000,0.000000,0.000000,0.000000,0.000000,0.000000,0.000000,0.000000,0.000000,0.000000,0.000000,0.000000,0.000000,0.000000,0,0,0,0,0,0.000000,0,0,0,1,0,0,0.000000,0.000000,0.000000,0.000000,0.000000,0.000000,0,0.998072,0.000000,0.000000,0.000000,0.000000,0.000000,0.000000,-2.440981,1.037311,2.440981,-1.037311,0.000000,0,0
13753,0.911556,-0.015701,0.017001,-0.410525,0.000000,0.000000,0.000000,0.016000,0.041000,-0.996000,3,22,1,22,37.5418111,127.0795291,28.205,0.786000,2.068000,-0.020000,-0.006000,0.016000,0.091000,1000,1000,1000,1000,1000.000000,0,0,0,0,1,0,0,0,0,2116,0.000000,0,0.000000,0.000000,0.000000,0.000000,0.000000,0.000000,0.000000,0.000000,0.000000,0.000000,0.000000,0.000000,0.000000,0.000000,0.000000,0.000000,0.000000,0.000000,0.000000,0.000000,0.000000,0.000000,0.000000,0.000000,0.000000,0.000000,0.000000,0.000000,0.000000,0.000000,0.000000,9.776955,0.000000,0.000000,0.000000,0.000000,0.000000,0.000000,0.000000,0.000000,0.000000,0.000000,0.000000,0.000000,0.000000,0.000000,0.000000,0.000000,0.000000,0.000000,0.000000,0.000000,0.000000,0.000000,0.000000,0.000000,0.000000,0.000000,0.000000,0.000000,0.000000,0.000000,0.000000,0.000000,0.000000,0,0,0,0,0,0.000000,0,0,0,1,0,0,0.000000,0.000000,0.000000,0.000000,0.000000,0.000000,0,0.996972,0.000000,0.000000,0.000000,0.000000,0.000000,0.000000,-2.440981,1.037311,2.440981,-1.037311,0.000000,0,0
13801,0.911556,-0.015701,0.017001,-0.410525,0.000000,0.000000,0.000000,0.018000,0.042000,-0.995000,3,22,1,22,37.5418111,127.0795291,28.173,0.780000,2.054000,0.009000,0.013000,0.025000,0.128000,1000,1000,1000,1000,1000.000000,0,0,0,0,1,0,0,0,0,2164,0.000000,0,0.000000,0.000000,0.000000,0.000000,0.000000,0.000000,0.000000,0.000000,0.000000,0.000000,0.000000,0.000000,0.000000,0.000000,0.000000,0.000000,0.000000,0.000000,0.000000,0.000000,0.000000,0.000000,0.000000,0.000000,0.000000,0.000000,0.000000,0.000000,0.000000,0.000000,0.000000,9.767901,0.000000,0.000000,0.000000,0.000000,0.000000,0.000000,0.000000,0.000000,0.000000,0.000000,0.000000,0.000000,0.000000,0.000000,0.000000,0.000000,0.000000,0.000000,0.000000,0.000000,0.000000,0.000000,0.000000,0.000000,0.000000,0.000000,0.000000,0.000000,0.000000,0.000000,0.000000,0.000000,0.000000,0,0,0,0,0,0.000000,0,0,0,1,0,0,0.000000,0.000000,0.000000,0.000000,0.000000,0.000000,0,0.996049,0.000000,0.000000,0.000000,0.000000,0.000000,0.000000,-2.440981,1.037311,2.440981,-1.037311,0.000000,0,0
13825,0.911556,-0.015701,0.017001,-0.410525,0.000000,0.000000,0.000000,0.018000,0.042000,-0.993000,3,22,1,22,37.5418111,127.0795291,28.173,0.780000,2.054000,0.009000,0.013000,0.025000,0.128000,1000,1000,1000,1000,1000.000000,0,0,0,0,1,0,0,0,0,2188,0.000000,0,0.000000,0.000000,0.000000,0.000000,0.000000,0.000000,0.000000,0.000000,0.000000,0.000000,0.000000,0.000000,0.000000,0.000000,0.000000,0.000000,0.000000,0.000000,0.000000,0.000000,0.000000,0.000000,0.000000,0.000000,0.000000,0.000000,0.000000,0.000000,0.000000,0.000000,0.000000,9.748308,0.000000,0.000000,0.000000,0.000000,0.000000,0.000000,0.000000,0.000000,0.000000,0.000000,0.000000,0.000000,0.000000,0.000000,0.000000,0.000000,0.000000,0.000000,0.000000,0.000000,0.000000,0.000000,0.000000,0.000000,0.000000,0.000000,0.000000,0.000000,0.000000,0.000000,0.000000,0.000000,0.000000,0,0,0,0,0,0.000000,0,0,0,1,0,0,0.000000,0.000000,0.000000,0.000000,0.000000,0.000000,0,0.994051,0.000000,0.000000,0.000000,0.000000,0.000000,0.000000,-2.440981,1.037311,2.440981,-1.037311,0.000000,0,0
13872,0.911556,-0.015701,0.017001,-0.410525,0.000000,0.000000,0.000000,0.018000,0.042000,-0.994000,3,22,1,22,37.5418111,127.0795291,28.173,0.780000,2.054000,0.009000,0.013000,0.025000,0.128000,1000,1000,1000,1000,1000.000000,0,0,0,0,1,0,0,0,0,2235,0.000000,0,0.000000,0.000000,0.000000,0.000000,0.000000,0.000000,0.000000,0.000000,0.000000,0.000000,0.000000,0.000000,0.000000,0.000000,0.000000,0.000000,0.000000,0.000000,0.000000,0.000000,0.000000,0.000000,0.000000,0.000000,0.000000,0.000000,0.000000,0.000000,0.000000,0.000000,0.000000,9.758105,0.000000,0.000000,0.000000,0.000000,0.000000,0.000000,0.000000,0.000000,0.000000,0.000000,0.000000,0.000000,0.000000,0.000000,0.000000,0.000000,0.000000,0.000000,0.000000,0.000000,0.000000,0.000000,0.000000,0.000000,0.000000,0.000000,0.000000,0.000000,0.000000,0.000000,0.000000,0.000000,0.000000,0,0,0,0,0,0.000000,0,0,0,1,0,0,0.000000,0.000000,0.000000,0.000000,0.000000,0.000000,0,0.995050,0.000000,0.000000,0.000000,0.000000,0.000000,0.000000,-2.440981,1.037311,2.440981,-1.037311,0.000000,0,0
13919,0.911557,-0.015601,0.017001,-0.410526,0.000000,0.000000,0.000000,0.017000,0.042000,-0.996000,3,22,1,22,37.5418111,127.0795291,28.156,0.775000,2.040000,0.012000,-0.006000,0.025000,0.128000,1000,1000,1000,1000,1000.000000,0,0,0,0,1,0,0,0,0,2282,0.000000,0,0.000000,0.000000,0.000000,0.000000,0.000000,0.000000,0.000000,0.000000,0.000000,0.000000,0.000000,0.000000,0.000000,0.000000,0.000000,0.000000,0.000000,0.000000,0.000000,0.000000,0.000000,0.000000,0.000000,0.000000,0.000000,0.000000,0.000000,0.000000,0.000000,0.000000,0.000000,9.777525,0.000000,0.000000,0.000000,0.000000,0.000000,0.000000,0.000000,0.000000,0.000000,0.000000,0.000000,0.000000,0.000000,0.000000,0.000000,0.000000,0.000000,0.000000,0.000000,0.000000,0.000000,0.000000,0.000000,0.000000,0.000000,0.000000,0.000000,0.000000,0.000000,0.000000,0.000000,0.000000,0.000000,0,0,0,0,0,0.000000,0,0,0,1,0,0,0.000000,0.000000,0.000000,0.000000,0.000000,0.000000,0,0.997030,0.000000,0.000000,0.000000,0.000000,0.000000,0.000000,-2.430536,1.042020,2.430536,-1.042020,-0.100187,0,0
13963,0.911556,-0.015701,0.017001,-0.410525,0.000000,0.000000,0.000000,0.017000,0.042000,-0.995000,3,22,1,22,37.5418111,127.0795291,28.156,0.775000,2.040000,0.012000,-0.006000,0.025000,0.128000,1000,1000,1000,1000,1000.000000,0,0,0,0,1,0,0,0,0,2326,0.000000,0,0.000000,0.000000,0.000000,0.000000,0.000000,0.000000,0.000000,0.000000,0.000000,0.000000,0.000000,0.000000,0.000000,0.000000,0.000000,0.000000,0.000000,0.000000,0.000000,0.000000,0.000000,0.000000,0.000000,0.000000,0.000000,0.000000,0.000000,0.000000,0.000000,0.000000,0.000000,9.767729,0.000000,0.000000,0.000000,0.000000,0.000000,0.000000,0.000000,0.000000,0.000000,0.000000,0.000000,0.000000,0.000000,0.000000,0.000000,0.000000,0.000000,0.000000,0.000000,0.000000,0.000000,0.000000,0.000000,0.000000,0.000000,0.000000,0.000000,0.000000,0.000000,0.000000,0.000000,0.000000,0.000000,0,0,0,0,0,0.000000,0,0,0,1,0,0,0.000000,0.000000,0.000000,0.000000,0.000000,0.000000,0,0.996031,0.000000,0.000000,0.000000,0.000000,0.000000,0.000000,-2.440981,1.037311,2.440981,-1.037311,0.107017,0,0
14031,0.911556,-0.015701,0.017001,-0.410525,0.000000,0.000000,0.000000,0.016000,0.042000,-0.993000,3,22,1,22,37.5418112,127.0795291,28.135,0.770000,2.026000,-0.003000,0.002000,0.026000,0.109000,1000,1000,1000,1000,1000.000000,0,0,0,0,1,0,0,0,0,2394,0.000000,0,0.000000,0.000000,0.000000,0.000000,0.000000,0.000000,0.000000,0.000000,0.000000,0.000000,0.000000,0.000000,0.000000,0.000000,0.000000,0.000000,0.000000,0.000000,0.000000,0.000000,0.000000,0.000000,0.000000,0.000000,0.000000,0.000000,0.000000,0.000000,0.000000,0.000000,0.000000,9.747972,0.000000,0.000000,0.000000,0.000000,0.000000,0.000000,0.000000,0.000000,0.000000,0.000000,0.000000,0.000000,0.000000,0.000000,0.000000,0.000000,0.000000,0.000000,0.000000,0.000000,0.000000,0.000000,0.000000,0.000000,0.000000,0.000000,0.000000,0.000000,0.000000,0.000000,0.000000,0.000000,0.000000,0,0,0,0,0,0.000000,0,0,0,1,0,0,0.000000,0.000000,0.000000,0.000000,0.000000,0.000000,0,0.994017,0.000000,0.000000,0.000000,0.000000,0.000000,0.000000,-2.440981,1.037311,2.440981,-1.037311,0.000000,0,0
14080,0.911556,-0.015701,0.017001,-0.410525,0.000000,0.000000,0.000000,0.017000,0.044000,-0.995000,3,22,1,22,37.5418112,127.0795291,28.135,0.770000,2.026000,-0.003000,0.002000,0.026000,0.109000,1000,1000,1000,1000,1000.000000,0,0,0,0,1,0,0,0,0,2442,0.000000,0,0.000000,0.000000,0.000000,0.000000,0.000000,0.000000,0.000000,0.000000,0.000000,0.000000,0.000000,0.000000,0.000000,0.000000,0.000000,0.000000,0.000000,0.000000,0.000000,0.000000,0.000000,0.000000,0.000000,0.000000,0.000000,0.000000,0.000000,0.000000,0.000000,0.000000,0.000000,9.768576,0.000000,0.000000,0.000000,0.000000,0.000000,0.000000,0.000000,0.000000,0.000000,0.000000,0.000000,0.000000,0.000000,0.000000,0.000000,0.000000,0.000000,0.000000,0.000000,0.000000,0.000000,0.000000,0.000000,0.000000,0.000000,0.000000,0.000000,0.000000,0.000000,0.000000,0.000000,0.000000,0.000000,0,0,0,0,0,0.000000,0,0,0,1,0,0,0.000000,0.000000,0.000000,0.000000,0.000000,0.000000,0,0.996117,0.000000,0.000000,0.000000,0.000000,0.000000,0.000000,-2.440981,1.037311,2.440981,-1.037311,0.000000,0,0
14130,0.911556,-0.015701,0.017001,-0.410525,0.000000,0.000000,0.000000,0.018000,0.043000,-0.994000,3,22,1,22,37.5418112,127.0795291,28.135,0.770000,2.026000,-0.003000,0.002000,0.026000,0.109000,1000,1000,1000,1000,1000.000000,0,0,0,0,1,0,0,0,0,2492,0.000000,0,0.000000,0.000000,0.000000,0.000000,0.000000,0.000000,0.000000,0.000000,0.000000,0.000000,0.000000,0.000000,0.000000,0.000000,0.000000,0.000000,0.000000,0.000000,0.000000,0.000000,0.000000,0.000000,0.000000,0.000000,0.000000,0.000000,0.000000,0.000000,0.000000,0.000000,0.000000,9.758524,0.000000,0.000000,0.000000,0.000000,0.000000,0.000000,0.000000,0.000000,0.000000,0.000000,0.000000,0.000000,0.000000,0.000000,0.000000,0.000000,0.000000,0.000000,0.000000,0.000000,0.000000,0.000000,0.000000,0.000000,0.000000,0.000000,0.000000,0.000000,0.000000,0.000000,0.000000,0.000000,0.000000,0,0,0,0,0,0.000000,0,0,0,1,0,0,0.000000,0.000000,0.000000,0.000000,0.000000,0.000000,0,0.995092,0.000000,0.000000,0.000000,0.000000,0.000000,0.000000,-2.440981,1.037311,2.440981,-1.037311,0.000000,0,0
14153,0.911557,-0.015601,0.017001,-0.410526,0.000000,0.000000,0.000000,0.017000,0.042000,-0.994000,3,22,1,22,37.5418112,127.0795291,28.132,0.765000,2.013000,0.028000,0.010000,0.016000,0.114000,1000,1000,1000,1000,1000.000000,0,0,0,0,1,0,0,0,0,2516,0.000000,0,0.000000,0.000000,0.000000,0.000000,0.000000,0.000000,0.000000,0.000000,0.000000,0.000000,0.000000,0.000000,0.000000,0.000000,0.000000,0.000000,0.000000,0.000000,0.000000,0.000000,0.000000,0.000000,0.000000,0.000000,0.000000,0.000000,0.000000,0.000000,0.000000,0.000000,0.000000,9.757933,0.000000,0.000000,0.000000,0.000000,0.000000,0.000000,0.000000,0.000000,0.000000,0.000000,0.000000,0.000000,0.000000,0.000000,0.000000,0.000000,0.000000,0.000000,0.000000,0.000000,0.000000,0.000000,0.000000,0.000000,0.000000,0.000000,0.000000,0.000000,0.000000,0.000000,0.000000,0.000000,0.000000,0,0,0,0,0,0.000000,0,0,0,1,0,0,0.000000,0.000000,0.000000,0.000000,0.000000,0.000000,0,0.995032,0.000000,0.000000,0.000000,0.000000,0.000000,0.000000,-2.430536,1.042020,2.430536,-1.042020,-0.204729,0,0
14199,0.911557,-0.015601,0.017001,-0.410526,0.000000,0.000000,0.000000,0.017000,0.041000,-0.995000,3,22,1,22,37.5418112,127.0795291,28.132,0.765000,2.013000,0.028000,0.010000,0.016000,0.114000,1000,1000,1000,1000,1000.000000,0,0,0,0,1,0,0,0,0,2562,0.000000,0,0.000000,0.000000,0.000000,0.000000,0.000000,0.000000,0.000000,0.000000,0.000000,0.000000,0.000000,0.000000,0.000000,0.000000,0.000000,0.000000,0.000000,0.000000,0.000000,0.000000,0.000000,0.000000,0.000000,0.000000,0.000000,0.000000,0.000000,0.000000,0.000000,0.000000,0.000000,9.767320,0.000000,0.000000,0.000000,0.000000,0.000000,0.000000,0.000000,0.000000,0.000000,0.000000,0.000000,0.000000,0.000000,0.000000,0.000000,0.000000,0.000000,0.000000,0.000000,0.000000,0.000000,0.000000,0.000000,0.000000,0.000000,0.000000,0.000000,0.000000,0.000000,0.000000,0.000000,0.000000,0.000000,0,0,0,0,0,0.000000,0,0,0,1,0,0,0.000000,0.000000,0.000000,0.000000,0.000000,0.000000,0,0.995989,0.000000,0.000000,0.000000,0.000000,0.000000,0.000000,-2.430536,1.042020,2.430536,-1.042020,0.000000,0,0
14243,0.911557,-0.015601,0.017001,-0.410526,0.000000,0.000000,0.000000,0.017000,0.042000,-0.996000,3,22,1,22,37.5418112,127.0795291,28.132,0.765000,2.013000,0.028000,0.010000,0.016000,0.114000,1000,1000,1000,1000,1000.000000,0,0,0,0,1,0,0,0,0,2606,0.000000,0,0.000000,0.000000,0.000000,0.000000,0.000000,0.000000,0.000000,0.000000,0.000000,0.000000,0.000000,0.000000,0.000000,0.000000,0.000000,0.000000,0.000000,0.000000,0.000000,0.000000,0.000000,0.000000,0.000000,0.000000,0.000000,0.000000,0.000000,0.000000,0.000000,0.000000,0.000000,9.777525,0.000000,0.000000,0.000000,0.000000,0.000000,0.000000,0.000000,0.000000,0.000000,0.000000,0.000000,0.000000,0.000000,0.000000,0.000000,0.000000,0.000000,0.000000,0.000000,0.000000,0.000000,0.000000,0.000000,0.000000,0.000000,0.000000,0.000000,0.000000,0.000000,0.000000,0.000000,0.000000,0.000000,0,0,0,0,0,0.000000,0,0,0,1,0,0,0.000000,0.000000,0.000000,0.000000,0.000000,0.000000,0,0.997030,0.000000,0.000000,0.000000,0.000000,0.000000,0.000000,-2.430536,1.042020,2.430536,-1.042020,0.000000,0,0
14287,0.911557,-0.015601,0.017001,-0.410526,0.000000,0.000000,0.000000,0.018000,0.042000,-0.994000,3,22,1,22,37.5418112,127.0795291,28.109,0.760000,1.999000,-0.016000,-0.005000,0.013000,0.087000,1000,1000,1000,1000,1000.000000,0,0,0,0,1,0,0,0,0,2650,0.000000,0,0.000000,0.000000,0.000000,0.000000,0.000000,0.000000,0.000000,0.000000,0.000000,0.000000,0.000000,0.000000,0.000000,0.000000,0.000000,0.000000,0.000000,0.000000,0.000000,0.000000,0.000000,0.000000,0.000000,0.000000,0.000000,0.000000,0.000000,0.000000,0.000000,0.000000,0.000000,9.758105,0.000000,0.000000,0.000000,0.000000,0.000000,0.000000,0.000000,0.000000,0.000000,0.000000,0.000000,0.000000,0.000000,0.000000,0.000000,0.000000,0.000000,0.000000,0.000000,0.000000,0.000000,0.000000,0.000000,0.000000,0.000000,0.000000,0.000000,0.000000,0.000000,0.000000,0.000000,0.000000,0.000000,0,0,0,0,0,0.000000,0,0,0,1,0,0,0.000000,0.000000,0.000000,0.000000,0.000000,0.000000,0,0.995050,0.000000,0.000000,0.000000,0.000000,0.000000,0.000000,-2.430536,1.042020,2.430536,-1.042020,0.000000,0,0
14354,0.911556,-0.015701,0.017001,-0.410525,0.000000,0.000000,0.000000,0.018000,0.042000,-0.993000,3,22,1,22,37.5418112,127.0795291,28.109,0.760000,1.999000,-0.016000,-0.005000,0.013000,0.087000,1000,1000,1000,1000,1000.000000,0,0,0,0,1,0,0,0,0,2717,0.000000,0,0.000000,0.000000,0.000000,0.000000,0.000000,0.000000,0.000000,0.000000,0.000000,0.000000,0.000000,0.000000,0.000000,0.000000,0.000000,0.000000,0.000000,0.000000,0.000000,0.000000,0.000000,0.000000,0.000000,0.000000,0.000000,0.000000,0.000000,0.000000,0.000000,0.000000,0.000000,9.748308,0.000000,0.000000,0.000000,0.000000,0.000000,0.000000,0.000000,0.000000,0.000000,0.000000,0.000000,0.000000,0.000000,0.000000,0.000000,0.000000,0.000000,0.000000,0.000000,0.000000,0.000000,0.000000,0.000000,0.000000,0.000000,0.000000,0.000000,0.000000,0.000000,0.000000,0.000000,0.000000,0.000000,0,0,0,0,0,0.000000,0,0,0,1,0,0,0.000000,0.000000,0.000000,0.000000,0.000000,0.000000,0,0.994051,0.000000,0.000000,0.000000,0.000000,0.000000,0.000000,-2.440981,1.037311,2.440981,-1.037311,0.070280,0,0
14404,0.911556,-0.015701,0.017001,-0.410525,0.000000,0.000000,0.000000,0.017000,0.040000,-0.996000,3,22,1,22,37.5418112,127.0795290,28.097,0.756000,1.986000,0.009000,-0.010000,0.013000,0.114000,1000,1000,1000,1000,1000.000000,0,0,0,0,1,0,0,0,0,2767,0.000000,0,0.000000,0.000000,0.000000,0.000000,0.000000,0.000000,0.000000,0.000000,0.000000,0.000000,0.000000,0.000000,0.000000,0.000000,0.000000,0.000000,0.000000,0.000000,0.000000,0.000000,0.000000,0.000000,0.000000,0.000000,0.000000,0.000000,0.000000,0.000000,0.000000,0.000000,0.000000,9.776718,0.000000,0.000000,0.000000,0.000000,0.000000,0.000000,0.000000,0.000000,0.000000,0.000000,0.000000,0.000000,0.000000,0.000000,0.000000,0.000000,0.000000,0.000000,0.000000,0.000000,0.000000,0.000000,0.000000,0.000000,0.000000,0.000000,0.000000,0.000000,0.000000,0.000000,0.000000,0.000000,0.000000,0,0,0,0,0,0.000000,0,0,0,1,0,0,0.000000,0.000000,0.000000,0.000000,0.000000,0.000000,0,0.996948,0.000000,0.000000,0.000000,0.000000,0.000000,0.000000,-2.440981,1.037311,2.440981,-1.037311,0.000000,0,0
14449,0.911556,-0.015701,0.017001,-0.410525,0.000000,0.000000,0.000000,0.017000,0.040000,-0.995000,3,22,1,22,37.5418112,127.0795290,28.097,0.756000,1.986000,0.009000,-0.010000,0.013000,0.114000,1000,1000,1000,1000,1000.000000,0,0,0,0,1,0,0,0,0,2812,0.000000,0,0.000000,0.000000,0.000000,0.000000,0.000000,0.000000,0.000000,0.000000,0.000000,0.000000,0.000000,0.000000,0.000000,0.000000,0.000000,0.000000,0.000000,0.000000,0.000000,0.000000,0.000000,0.000000,0.000000,0.000000,0.000000,0.000000,0.000000,0.000000,0.000000,0.000000,0.000000,9.766921,0.000000,0.000000,0.000000,0.000000,0.000000,0.000000,0.000000,0.000000,0.000000,0.000000,0.000000,0.000000,0.000000,0.000000,0.000000,0.000000,0.000000,0.000000,0.000000,0.000000,0.000000,0.000000,0.000000,0.000000,0.000000,0.000000,0.000000,0.000000,0.000000,0.000000,0.000000,0.000000,0.000000,0,0,0,0,0,0.000000,0,0,0,1,0,0,0.000000,0.000000,0.000000,0.000000,0.000000,0.000000,0,0.995949,0.000000,0.000000,0.000000,0.000000,0.000000,0.000000,-2.440981,1.037311,2.440981,-1.037311,0.000000,0,0
14493,0.911557,-0.015701,0.016901,-0.410526,0.000000,0.000000,0.000000,0.017000,0.041000,-0.994000,3,22,1,22,37.5418112,127.0795290,28.097,0.756000,1.986000,0.009000,-0.010000,0.013000,0.114000,1000,1000,1000,1000,1000.000000,0,0,0,0,1,0,0,0,0,2856,0.000000,0,0.000000,0.000000,0.000000,0.000000,0.000000,0.000000,0.000000,0.000000,0.000000,0.000000,0.000000,0.000000,0.000000,0.000000,0.000000,0.000000,0.000000,0.000000,0.000000,0.000000,0.000000,0.000000,0.000000,0.000000,0.000000,0.000000,0.000000,0.000000,0.000000,0.000000,0.000000,9.757524,0.000000,0.000000,0.000000,0.000000,0.000000,0.000000,0.000000,0.000000,0.000000,0.000000,0.000000,0.000000,0.000000,0.000000,0.000000,0.000000,0.000000,0.000000,0.000000,0.000000,0.000000,0.000000,0.000000,0.000000,0.000000,0.000000,0.000000,0.000000,0.000000,0.000000,0.000000,0.000000,0.000000,0,0,0,0,0,0.000000,0,0,0,1,0,0,0.000000,0.000000,0.000000,0.000000,0.000000,0.000000,0,0.994990,0.000000,0.000000,0.000000,0.000000,0.000000,0.000000,-2.436273,1.026867,2.436273,-1.026867,0.237373,0,0
14517,0.911557,-0.015701,0.016901,-0.410526,0.000000,0.000000,0.000000,0.017000,0.041000,-0.994000,3,22,1,22,37.5418112,127.0795291,28.079,0.751000,1.973000,-0.017000,0.000000,-0.001000,0.082000,1000,1000,1000,1000,1000.000000,0,0,0,0,1,0,0,0,0,2880,0.000000,0,0.000000,0.000000,0.000000,0.000000,0.000000,0.000000,0.000000,0.000000,0.000000,0.000000,0.000000,0.000000,0.000000,0.000000,0.000000,0.000000,0.000000,0.000000,0.000000,0.000000,0.000000,0.000000,0.000000,0.000000,0.000000,0.000000,0.000000,0.000000,0.000000,0.000000,0.000000,9.757524,0.000000,0.000000,0.000000,0.000000,0.000000,0.000000,0.000000,0.000000,0.000000,0.000000,0.000000,0.000000,0.000000,0.000000,0.000000,0.000000,0.000000,0.000000,0.000000,0.000000,0.000000,0.000000,0.000000,0.000000,0.000000,0.000000,0.000000,0.000000,0.000000,0.000000,0.000000,0.000000,0.000000,0,0,0,0,0,0.000000,0,0,0,1,0,0,0.000000,0.000000,0.000000,0.000000,0.000000,0.000000,0,0.994990,0.000000,0.000000,0.000000,0.000000,0.000000,0.000000,-2.436273,1.026867,2.436273,-1.026867,0.000000,0,0
14561,0.911559,-0.015601,0.016901,-0.410526,0.000000,0.000000,0.000000,0.019000,0.041000,-0.997000,3,22,1,22,37.5418112,127.0795291,28.079,0.751000,1.973000,-0.017000,0.000000,-0.001000,0.082000,1000,1000,1000,1000,1000.000000,0,0,0,0,1,0,0,0,0,2924,0.000000,0,0.000000,0.000000,0.000000,0.000000,0.000000,0.000000,0.000000,0.000000,0.000000,0.000000,0.000000,0.000000,0.000000,0.000000,0.000000,0.000000,0.000000,0.000000,0.000000,0.000000,0.000000,0.000000,0.000000,0.000000,0.000000,0.000000,0.000000,0.000000,0.000000,0.000000,0.000000,9.787268,0.000000,0.000000,0.000000,0.000000,0.000000,0.000000,0.000000,0.000000,0.000000,0.000000,0.000000,0.000000,0.000000,0.000000,0.000000,0.000000,0.000000,0.000000,0.000000,0.000000,0.000000,0.000000,0.000000,0.000000,0.000000,0.000000,0.000000,0.000000,0.000000,0.000000,0.000000,0.000000,0.000000,0,0,0,0,0,0.000000,0,0,0,1,0,0,0.000000,0.000000,0.000000,0.000000,0.000000,0.000000,0,0.998024,0.000000,0.000000,0.000000,0.000000,0.000000,0.000000,-2.425826,1.031575,2.425826,-1.031575,-0.107009,0,0
14606,0.911559,-0.015601,0.016901,-0.410526,0.000000,0.000000,0.000000,0.018000,0.042000,-0.994000,3,22,1,22,37.5418112,127.0795291,28.079,0.751000,1.973000,-0.017000,0.000000,-0.001000,0.082000,1000,1000,1000,1000,1000.000000,0,0,0,0,0,1,0,0,0,2969,0.000000,0,0.000000,0.000000,0.000000,0.000000,0.000000,0.000000,0.000000,0.000000,0.000000,0.000000,0.000000,0.000000,0.000000,0.000000,0.000000,0.000000,0.000000,0.000000,0.000000,0.000000,0.000000,0.000000,0.000000,0.000000,0.000000,0.000000,0.000000,0.000000,0.000000,0.000000,0.000000,9.758105,0.000000,0.000000,0.000000,-0.000005,0.000001,-0.000005,0.000000,0.000000,0.000000,0.000000,0.000000,0.000000,0.000000,0.000000,0.000000,0.000000,0.000000,0.000000,0.000000,0.000000,0.000000,0.000000,0.000000,0.000000,0.000000,0.000000,0.000000,0.000000,0.000000,0.000000,0.000000,0.000000,0.000000,0,0,0,0,0,0.000000,0,0,0,1,0,0,0.000000,0.000000,0.000000,0.000000,0.000000,0.000000,0,0.995050,0.000000,0.000000,0.000000,0.000000,0.000000,0.000000,-2.425826,1.031575,2.425826,-1.031575,0.000000,0,0
14671,0.911557,-0.015601,0.017001,-0.410526,0.000000,0.000000,0.000000,0.018000,0.042000,-0.997000,3,22,1,22,37.5418112,127.0795291,28.071,0.746000,1.961000,0.005000,-0.013000,-0.006000,0.089000,1000,1000,1000,1000,1000.000000,0,0,0,0,0,1,0,0,0,3034,0.000000,0,0.000000,0.000000,0.000000,0.000000,0.000000,0.000000,0.000000,0.000000,0.000000,0.000000,0.000000,0.000000,0.000000,0.000000,0.000000,0.000000,0.000000,0.000000,0.000000,0.000000,0.000000,0.000000,0.000000,0.000000,0.000000,0.000000,0.000000,0.000000,0.000000,0.000000,0.000000,9.787494,0.000000,0.000000,0.000000,-0.000005,0.000001,-0.000005,0.000000,0.000000,0.000000,0.000000,0.000000,0.000000,0.000000,0.000000,0.000000,0.000000,0.000000,0.000000,0.000000,0.000000,0.000000,0.000000,0.000000,0.000000,0.000000,0.000000,0.000000,0.000000,0.000000,0.000000,0.000000,0.000000,0.000000,0,0,0,0,0,0.000000,0,0,0,1,0,0,0.000000,0.000000,0.000000,0.000000,0.000000,0.000000,0,0.998047,0.000000,0.000000,0.000000,0.000000,0.000000,0.000000,-2.430536,1.042020,2.430536,-1.042020,-0.160689,0,0
14695,0.911556,-0.015701,0.017001,-0.410525,0.000000,0.000000,0.000000,0.017000,0.043000,-0.994000,3,22,1,22,37.5418112,127.0795291,28.071,0.746000,1.961000,0.005000,-0.013000,-0.006000,0.089000,1000,1000,1000,1000,1000.000000,0,0,0,0,0,1,0,0,0,3058,0.000000,0,0.000000,0.000000,0.000000,0.000000,0.000000,0.000000,0.000000,0.000000,0.000000,0.000000,0.000000,0.000000,0.000000,0.000000,0.000000,0.000000,0.000000,0.000000,0.000000,0.000000,0.000000,0.000000,0.000000,0.000000,0.000000,0.000000,0.000000,0.000000,0.000000,0.000000,0.000000,9.758351,0.000000,0.000000,0.000000,-0.000005,0.000001,-0.000005,0.000000,0.000000,0.000000,0.000000,0.000000,0.000000,0.000000,0.000000,0.000000,0.000000,0.000000,0.000000,0.000000,0.000000,0.000000,0.000000,0.000000,0.000000,0.000000,0.000000,0.000000,0.000000,0.000000,0.000000,0.000000,0.000000,0.000000,0,0,0,0,0,0.000000,0,0,0,1,0,0,0.000000,0.000000,0.000000,0.000000,0.000000,0.000000,0,0.995075,0.000000,0.000000,0.000000,0.000000,0.000000,0.000000,-2.440981,1.037311,2.440981,-1.037311,0.196199,0,0
14756,0.911556,-0.015701,0.017001,-0.410525,0.000000,0.000000,0.000000,0.018000,0.043000,-0.995000,3,22,1,22,37.5418112,127.0795291,28.071,0.746000,1.961000,0.005000,-0.013000,-0.006000,0.089000,1000,1000,1000,1000,1000.000000,0,0,0,0,0,1,0,0,0,3119,0.000000,0,0.000000,0.000000,0.000000,0.000000,0.000000,0.000000,0.000000,0.000000,0.000000,0.000000,0.000000,0.000000,0.000000,0.000000,0.000000,0.000000,0.000000,0.000000,0.000000,0.000000,0.000000,0.000000,0.000000,0.000000,0.000000,0.000000,0.000000,0.000000,0.000000,0.000000,0.000000,9.768319,0.000000,0.000000,0.000000,-0.000005,0.000001,-0.000005,0.000000,0.000000,0.000000,0.000000,0.000000,0.000000,0.000000,0.000000,0.000000,0.000000,0.000000,0.000000,0.000000,0.000000,0.000000,0.000000,0.000000,0.000000,0.000000,0.000000,0.000000,0.000000,0.000000,0.000000,0.000000,0.000000,0.000000,0,0,0,0,0,0.000000,0,0,0,1,0,0,0.000000,0.000000,0.000000,0.000000,0.000000,0.000000,0,0.996091,0.000000,0.000000,0.000000,0.000000,0.000000,0.000000,-2.440981,1.037311,2.440981,-1.037311,0.000000,0,0
14806,0.911556,-0.015701,0.017001,-0.410525,0.000000,0.000000,0.000000,0.016000,0.042000,-0.995000,3,22,1,22,37.5418113,127.0795291,28.053,0.742000,1.949000,0.003000,0.005000,0.000000,0.094000,1000,1000,1000,1000,1000.000000,0,0,0,0,0,1,0,0,0,3169,0.000000,0,0.000000,0.000000,0.000000,0.000000,0.000000,0.000000,0.000000,0.000000,0.000000,0.000000,0.000000,0.000000,0.000000,0.000000,0.000000,0.000000,0.000000,0.000000,0.000000,0.000000,0.000000,0.000000,0.000000,0.000000,0.000000,0.000000,0.000000,0.000000,0.000000,0.000000,0.000000,9.767566,0.000000,0.000000,0.000000,-0.000005,0.000001,-0.000005,0.000000,0.000000,0.000000,0.000000,0.000000,0.000000,0.000000,0.000000,0.000000,0.000000,0.000000,0.000000,0.000000,0.000000,0.000000,0.000000,0.000000,0.000000,0.000000,0.000000,0.000000,0.000000,0.000000,0.000000,0.000000,0.000000,0.000000,0,0,0,0,0,0.000000,0,0,0,1,0,0,0.000000,0.000000,0.000000,0.000000,0.000000,0.000000,0,0.996015,0.000000,0.000000,0.000000,0.000000,0.000000,0.000000,-2.440981,1.037311,2.440981,-1.037311,0.000000,0,0
14852,0.911556,-0.015701,0.017001,-0.410525,0.000000,0.000000,0.000000,0.020000,0.044000,-0.996000,3,22,1,22,37.5418113,127.0795291,28.053,0.742000,1.949000,0.003000,0.005000,0.000000,0.094000,1000,1000,1000,1000,1000.000000,0,0,0,0,0,1,0,0,0,3215,0.000000,0,0.000000,0.000000,0.000000,0.000000,0.000000,0.000000,0.000000,0.000000,0.000000,0.000000,0.000000,0.000000,0.000000,0.000000,0.000000,0.000000,0.000000,0.000000,0.000000,0.000000,0.000000,0.000000,0.000000,0.000000,0.000000,0.000000,0.000000,0.000000,0.000000,0.000000,0.000000,9.778917,0.000000,0.000000,0.000000,-0.000005,0.000001,-0.000005,0.000000,0.000000,0.000000,0.000000,0.000000,0.000000,0.000000,0.000000,0.000000,0.000000,0.000000,0.000000,0.000000,0.000000,0.000000,0.000000,0.000000,0.000000,0.000000,0.000000,0.000000,0.000000,0.000000,0.000000,0.000000,0.000000,0.000000,0,0,0,0,0,0.000000,0,0,0,1,0,0,0.000000,0.000000,0.000000,0.000000,0.000000,0.000000,0,0.997172,0.000000,0.000000,0.000000,0.000000,0.000000,0.000000,-2.440981,1.037311,2.440981,-1.037311,0.000000,0,0
14880,0.911556,-0.015701,0.017001,-0.410525,0.000000,0.000000,0.000000,0.017000,0.041000,-0.995000,3,22,1,22,37.5418113,127.0795291,28.053,0.742000,1.949000,0.003000,0.005000,0.000000,0.094000,1000,1000,1000,1000,1000.000000,0,0,0,0,0,1,0,0,0,3242,0.000000,0,0.000000,0.000000,0.000000,0.000000,0.000000,0.000000,0.000000,0.000000,0.000000,0.000000,0.000000,0.000000,0.000000,0.000000,0.000000,0.000000,0.000000,0.000000,0.000000,0.000000,0.000000,0.000000,0.000000,0.000000,0.000000,0.000000,0.000000,0.000000,0.000000,0.000000,0.000000,9.767320,0.000000,0.000000,0.000000,-0.000005,0.000001,-0.000005,0.000000,0.000000,0.000000,0.000000,0.000000,0.000000,0.000000,0.000000,0.000000,0.000000,0.000000,0.000000,0.000000,0.000000,0.000000,0.000000,0.000000,0.000000,0.000000,0.000000,0.000000,0.000000,0.000000,0.000000,0.000000,0.000000,0.000000,0,0,0,0,0,0.000000,0,0,0,1,0,0,0.000000,0.000000,0.000000,0.000000,0.000000,0.000000,0,0.995989,0.000000,0.000000,0.000000,0.000000,0.000000,0.000000,-2.440981,1.037311,2.440981,-1.037311,0.000000,0,0
14923,0.911556,-0.015701,0.017001,-0.410525,0.000000,0.000000,0.000000,0.017000,0.042000,-0.996000,3,22,1,22,37.5418113,127.0795291,28.046,0.738000,1.937000,0.017000,0.009000,0.000000,0.093000,1000,1000,1000,1000,1000.000000,0,0,0,0,0,1,0,0,0,3286,0.000000,0,0.000000,0.000000,0.000000,0.000000,0.000000,0.000000,0.000000,0.000000,0.000000,0.000000,0.000000,0.000000,0.000000,0.000000,0.000000,0.000000,0.000000,0.000000,0.000000,0.000000,0.000000,0.000000,0.000000,0.000000,0.000000,0.000000,0.000000,0.000000,0.000000,0.000000,0.000000,9.777525,0.000000,0.000000,0.000000,-0.000005,0.000001,-0.000005,0.000000,0.000000,0.000000,0.000000,0.000000,0.000000,0.000000,0.000000,0.000000,0.000000,0.000000,0.000000,0.000000,0.000000,0.000000,0.000000,0.000000,0.000000,0.000000,0.000000,0.000000,0.000000,0.000000,0.000000,0.000000,0.000000,0.000000,0,0,0,0,0,0.000000,0,0,0,1,0,0,0.000000,0.000000,0.000000,0.000000,0.000000,0.000000,0,0.997030,0.000000,0.000000,0.000000,0.000000,0.000000,0.000000,-2.440981,1.037311,2.440981,-1.037311,0.000000,0,0
14970,0.911556,-0.015701,0.017001,-0.410525,0.000000,0.000000,0.000000,0.018000,0.041000,-0.995000,3,22,1,22,37.5418113,127.0795291,28.046,0.738000,1.937000,0.017000,0.009000,0.000000,0.093000,1000,1000,1000,1000,1000.000000,0,0,0,0,0,1,0,0,0,3333,0.000000,0,0.000000,0.000000,0.000000,0.000000,0.000000,0.000000,0.000000,0.000000,0.000000,0.000000,0.000000,0.000000,0.000000,0.000000,0.000000,0.000000,0.000000,0.000000,0.000000,0.000000,0.000000,0.000000,0.000000,0.000000,0.000000,0.000000,0.000000,0.000000,0.000000,0.000000,0.000000,9.767492,0.000000,0.000000,0.000000,-0.000005,0.000001,-0.000005,0.000000,0.000000,0.000000,0.000000,0.000000,0.000000,0.000000,0.000000,0.000000,0.000000,0.000000,0.000000,0.000000,0.000000,0.000000,0.000000,0.000000,0.000000,0.000000,0.000000,0.000000,0.000000,0.000000,0.000000,0.000000,0.000000,0.000000,0,0,0,0,0,0.000000,0,0,0,1,0,0,0.000000,0.000000,0.000000,0.000000,0.000000,0.000000,0,0.996007,0.000000,0.000000,0.000000,0.000000,0.000000,0.000000,-2.440981,1.037311,2.440981,-1.037311,0.000000,0,0
15014,0.911557,-0.015601,0.017001,-0.410526,0.000000,0.000000,0.000000,0.018000,0.042000,-0.995000,3,22,1,22,37.5418114,127.0795291,28.022,0.734000,1.925000,0.016000,-0.010000,0.007000,0.091000,1000,1000,1000,1000,1000.000000,0,0,0,0,0,1,0,0,0,3377,0.000000,0,0.000000,0.000000,0.000000,0.000000,0.000000,0.000000,0.000000,0.000000,0.000000,0.000000,0.000000,0.000000,0.000000,0.000000,0.000000,0.000000,0.000000,0.000000,0.000000,0.000000,0.000000,0.000000,0.000000,0.000000,0.000000,0.000000,0.000000,0.000000,0.000000,0.000000,0.000000,9.767901,0.000000,0.000000,0.000000,-0.000005,0.000001,-0.000005,0.000000,0.000000,0.000000,0.000000,0.000000,0.000000,0.000000,0.000000,0.000000,0.000000,0.000000,0.000000,0.000000,0.000000,0.000000,0.000000,0.000000,0.000000,0.000000,0.000000,0.000000,0.000000,0.000000,0.000000,0.000000,0.000000,0.000000,0,0,0,0,0,0.000000,0,0,0,1,0,0,0.000000,0.000000,0.000000,0.000000,0.000000,0.000000,0,0.996049,0.000000,0.000000,0.000000,0.000000,0.000000,0.000000,-2.430536,1.042020,2.430536,-1.042020,-0.107017,0,0
15038,0.911556,-0.015701,0.017001,-0.410525,0.000000,0.000000,0.000000,0.018000,0.042000,-0.994000,3,22,1,22,37.5418114,127.0795291,28.022,0.734000,1.925000,0.016000,-0.010000,0.007000,0.091000,1000,1000,1000,1000,1000.000000,0,0,0,0,0,1,0,0,0,3401,0.000000,0,0.000000,0.000000,0.000000,0.000000,0.000000,0.000000,0.000000,0.000000,0.000000,0.000000,0.000000,0.000000,0.000000,0.000000,0.000000,0.000000,0.000000,0.000000,0.000000,0.000000,0.000000,0.000000,0.000000,0.000000,0.000000,0.000000,0.000000,0.000000,0.000000,0.000000,0.000000,9.758105,0.000000,0.000000,0.000000,-0.000005,0.000001,-0.000005,0.000000,0.000000,0.000000,0.000000,0.000000,0.000000,0.000000,0.000000,0.000000,0.000000,0.000000,0.000000,0.000000,0.000000,0.000000,0.000000,0.000000,0.000000,0.000000,0.000000,0.000000,0.000000,0.000000,0.000000,0.000000,0.000000,0.000000,0,0,0,0,0,0.000000,0,0,0,1,0,0,0.000000,0.000000,0.000000,0.000000,0.000000,0.000000,0,0.995050,0.000000,0.000000,0.000000,0.000000,0.000000,0.000000,-2.440981,1.037311,2.440981,-1.037311,0.196199,0,0
15109,0.911556,-0.015701,0.017001,-0.410525,0.000000,0.000000,0.000000,0.017000,0.042000,-0.996000,3,22,1,22,37.5418114,127.0795291,28.022,0.734000,1.925000,0.016000,-0.010000,0.007000,0.091000,1000,1000,1000,1000,1000.000000,0,0,0,0,0,1,0,0,0,3472,0.000000,0,0.000000,0.000000,0.000000,0.000000,0.000000,0.000000,0.000000,0.000000,0.000000,0.000000,0.000000,0.000000,0.000000,0.000000,0.000000,0.000000,0.000000,0.000000,0.000000,0.000000,0.000000,0.000000,0.000000,0.000000,0.000000,0.000000,0.000000,0.000000,0.000000,0.000000,0.000000,9.777525,0.000000,0.000000,0.000000,-0.000005,0.000001,-0.000005,0.000000,0.000000,0.000000,0.000000,0.000000,0.000000,0.000000,0.000000,0.000000,0.000000,0.000000,0.000000,0.000000,0.000000,0.000000,0.000000,0.000000,0.000000,0.000000,0.000000,0.000000,0.000000,0.000000,0.000000,0.000000,0.000000,0.000000,0,0,0,0,0,0.000000,0,0,0,1,0,0,0.000000,0.000000,0.000000,0.000000,0.000000,0.000000,0,0.997030,0.000000,0.000000,0.000000,0.000000,0.000000,0.000000,-2.440981,1.037311,2.440981,-1.037311,0.000000,0,0
15133,0.911556,-0.015701,0.017001,-0.410525,0.000000,0.000000,0.000000,0.018000,0.043000,-0.996000,3,22,1,22,37.5418114,127.0795291,28.022,0.734000,1.925000,0.016000,-0.010000,0.007000,0.091000,1000,1000,1000,1000,1000.000000,0,0,0,0,0,1,0,0,0,3496,0.000000,0,0.000000,0.000000,0.000000,0.000000,0.000000,0.000000,0.000000,0.000000,0.000000,0.000000,0.000000,0.000000,0.000000,0.000000,0.000000,0.000000,0.000000,0.000000,0.000000,0.000000,0.000000,0.000000,0.000000,0.000000,0.000000,0.000000,0.000000,0.000000,0.000000,0.000000,0.000000,9.778115,0.000000,0.000000,0.000000,-0.000005,0.000001,-0.000005,0.000000,0.000000,0.000000,0.000000,0.000000,0.000000,0.000000,0.000000,0.000000,0.000000,0.000000,0.000000,0.000000,0.000000,0.000000,0.000000,0.000000,0.000000,0.000000,0.000000,0.000000,0.000000,0.000000,0.000000,0.000000,0.000000,0.000000,0,0,0,0,0,0.000000,0,0,0,1,0,0,0.000000,0.000000,0.000000,0.000000,0.000000,0.000000,0,0.997090,0.000000,0.000000,0.000000,0.000000,0.000000,0.000000,-2.440981,1.037311,2.440981,-1.037311,0.000000,0,0
15157,0.911556,-0.015701,0.017001,-0.410525,0.000000,0.000000,0.000000,0.017000,0.042000,-0.995000,3,22,1,22,37.5418113,127.0795291,28.023,0.729000,1.913000,-0.003000,-0.009000,-0.006000,0.115000,1000,1000,1000,1000,1000.000000,0,0,0,0,0,1,0,0,0,3520,0.000000,0,0.000000,0.000000,0.000000,0.000000,0.000000,0.000000,0.000000,0.000000,0.000000,0.000000,0.000000,0.000000,0.000000,0.000000,0.000000,0.000000,0.000000,0.000000,0.000000,0.000000,0.000000,0.000000,0.000000,0.000000,0.000000,0.000000,0.000000,0.000000,0.000000,0.000000,0.000000,9.767729,0.000000,0.000000,0.000000,-0.000005,0.000001,-0.000005,0.000000,0.000000,0.000000,0.000000,0.000000,0.000000,0.000000,0.000000,0.000000,0.000000,0.000000,0.000000,0.000000,0.000000,0.000000,0.000000,0.000000,0.000000,0.000000,0.000000,0.000000,0.000000,0.000000,0.000000,0.000000,0.000000,0.000000,0,0,0,0,0,0.000000,0,0,0,1,0,0,0.000000,0.000000,0.000000,0.000000,0.000000,0.000000,0,0.996031,0.000000,0.000000,0.000000,0.000000,0.000000,0.000000,-2.440981,1.037311,2.440981,-1.037311,0.000000,0,0
15204,0.911556,-0.015701,0.017001,-0.410525,0.000000,0.000000,0.000000,0.018000,0.042000,-0.994000,3,22,1,22,37.5418113,127.0795291,28.023,0.729000,1.913000,-0.003000,-0.009000,-0.006000,0.115000,1000,1000,1000,1000,1000.000000,0,0,0,0,0,1,0,0,0,3567,0.000000,0,0.000000,0.000000,0.000000,0.000000,0.000000,0.000000,0.000000,0.000000,0.000000,0.000000,0.000000,0.000000,0.000000,0.000000,0.000000,0.000000,0.000000,0.000000,0.000000,0.000000,0.000000,0.000000,0.000000,0.000000,0.000000,0.000000,0.000000,0.000000,0.000000,0.000000,0.000000,9.758105,0.000000,0.000000,0.000000,-0.000005,0.000001,-0.000005,0.000000,0.000000,0.000000,0.000000,0.000000,0.000000,0.000000,0.000000,0.000000,0.000000,0.000000,0.000000,0.000000,0.000000,0.000000,0.000000,0.000000,0.000000,0.000000,0.000000,0.000000,0.000000,0.000000,0.000000,0.000000,0.000000,0.000000,0,0,0,0,0,0.000000,0,0,0,1,0,0,0.000000,0.000000,0.000000,0.000000,0.000000,0.000000,0,0.995050,0.000000,0.000000,0.000000,0.000000,0.000000,0.000000,-2.440981,1.037311,2.440981,-1.037311,0.000000,0,0
15249,0.911557,-0.015701,0.016901,-0.410526,0.000000,0.000000,0.000000,0.018000,0.042000,-0.995000,3,22,1,22,37.5418113,127.0795291,28.023,0.729000,1.913000,-0.003000,-0.009000,-0.006000,0.115000,1000,1000,1000,1000,1000.000000,0,0,0,0,0,1,0,0,0,3612,0.000000,0,0.000000,0.000000,0.000000,0.000000,0.000000,0.000000,0.000000,0.000000,0.000000,0.000000,0.000000,0.000000,0.000000,0.000000,0.000000,0.000000,0.000000,0.000000,0.000000,0.000000,0.000000,0.000000,0.000000,0.000000,0.000000,0.000000,0.000000,0.000000,0.000000,0.000000,0.000000,9.767901,0.000000,0.000000,0.000000,-0.000005,0.000001,-0.000005,0.000000,0.000000,0.000000,0.000000,0.000000,0.000000,0.000000,0.000000,0.000000,0.000000,0.000000,0.000000,0.000000,0.000000,0.000000,0.000000,0.000000,0.000000,0.000000,0.000000,0.000000,0.000000,0.000000,0.000000,0.000000,0.000000,0.000000,0,0,0,0,0,0.000000,0,0,0,1,0,0,0.000000,0.000000,0.000000,0.000000,0.000000,0.000000,0,0.996049,0.000000,0.000000,0.000000,0.000000,0.000000,0.000000,-2.436273,1.026867,2.436273,-1.026867,0.232098,0,0
15293,0.911556,-0.015701,0.017001,-0.410525,0.000000,0.000000,0.000000,0.017000,0.043000,-0.996000,3,22,1,22,37.5418114,127.0795290,28.022,0.725000,1.902000,0.040000,-0.027000,-0.006000,0.071000,1000,1000,1000,1000,1000.000000,0,0,0,0,0,1,0,0,0,3656,0.000000,0,0.000000,0.000000,0.000000,0.000000,0.000000,0.000000,0.000000,0.000000,0.000000,0.000000,0.000000,0.000000,0.000000,0.000000,0.000000,0.000000,0.000000,0.000000,0.000000,0.000000,0.000000,0.000000,0.000000,0.000000,0.000000,0.000000,0.000000,0.000000,0.000000,0.000000,0.000000,9.777943,0.000000,0.000000,0.000000,-0.000005,0.000001,-0.000005,0.000000,0.000000,0.000000,0.000000,0.000000,0.000000,0.000000,0.000000,0.000000,0.000000,0.000000,0.000000,0.000000,0.000000,0.000000,0.000000,0.000000,0.000000,0.000000,0.000000,0.000000,0.000000,0.000000,0.000000,0.000000,0.000000,0.000000,0,0,0,0,0,0.000000,0,0,0,1,0,0,0.000000,0.000000,0.000000,0.000000,0.000000,0.000000,0,0.997073,0.000000,0.000000,0.000000,0.000000,0.000000,0.000000,-2.440981,1.037311,2.440981,-1.037311,-0.237373,0,0
15317,0.911556,-0.015701,0.017001,-0.410525,0.000000,0.000000,0.000000,0.018000,0.041000,-0.994000,3,22,1,22,37.5418114,127.0795290,28.022,0.725000,1.902000,0.040000,-0.027000,-0.006000,0.071000,1000,1000,1000,1000,1000.000000,0,0,0,0,0,1,0,0,0,3680,0.000000,0,0.000000,0.000000,0.000000,0.000000,0.000000,0.000000,0.000000,0.000000,0.000000,0.000000,0.000000,0.000000,0.000000,0.000000,0.000000,0.000000,0.000000,0.000000,0.000000,0.000000,0.000000,0.000000,0.000000,0.000000,0.000000,0.000000,0.000000,0.000000,0.000000,0.000000,0.000000,9.757696,0.000000,0.000000,0.000000,-0.000005,0.000001,-0.000005,0.000000,0.000000,0.000000,0.000000,0.000000,0.000000,0.000000,0.000000,0.000000,0.000000,0.000000,0.000000,0.000000,0.000000,0.000000,0.000000,0.000000,0.000000,0.000000,0.000000,0.000000,0.000000,0.000000,0.000000,0.000000,0.000000,0.000000,0,0,0,0,0,0.000000,0,0,0,1,0,0,0.000000,0.000000,0.000000,0.000000,0.000000,0.000000,0,0.995008,0.000000,0.000000,0.000000,0.000000,0.000000,0.000000,-2.440981,1.037311,2.440981,-1.037311,0.000000,0,0
15388,0.911556,-0.015701,0.017001,-0.410525,0.000000,0.000000,0.000000,0.018000,0.043000,-0.997000,3,22,1,22,37.5418114,127.0795289,28.018,0.722000,1.891000,-0.005000,-0.038000,-0.015000,0.110000,1000,1000,1000,1000,1000.000000,0,0,0,0,0,1,0,0,0,3750,0.000000,0,0.000000,0.000000,0.000000,0.000000,0.000000,0.000000,0.000000,0.000000,0.000000,0.000000,0.000000,0.000000,0.000000,0.000000,0.000000,0.000000,0.000000,0.000000,0.000000,0.000000,0.000000,0.000000,0.000000,0.000000,0.000000,0.000000,0.000000,0.000000,0.000000,0.000000,0.000000,9.787911,0.000000,0.000000,0.000000,-0.000005,0.000001,-0.000005,0.000000,0.000000,0.000000,0.000000,0.000000,0.000000,0.000000,0.000000,0.000000,0.000000,0.000000,0.000000,0.000000,0.000000,0.000000,0.000000,0.000000,0.000000,0.000000,0.000000,0.000000,0.000000,0.000000,0.000000,0.000000,0.000000,0.000000,0,0,0,0,0,0.000000,0,0,0,1,0,0,0.000000,0.000000,0.000000,0.000000,0.000000,0.000000,0,0.998089,0.000000,0.000000,0.000000,0.000000,0.000000,0.000000,-2.440981,1.037311,2.440981,-1.037311,0.000000,0,0
15412,0.911556,-0.015701,0.017001,-0.410525,0.000000,0.000000,0.000000,0.017000,0.043000,-0.994000,3,22,1,22,37.5418114,127.0795289,28.018,0.722000,1.891000,-0.005000,-0.038000,-0.015000,0.110000,1000,1000,1000,1000,1000.000000,0,0,0,0,0,1,0,0,0,3775,0.000000,0,0.000000,0.000000,0.000000,0.000000,0.000000,0.000000,0.000000,0.000000,0.000000,0.000000,0.000000,0.000000,0.000000,0.000000,0.000000,0.000000,0.000000,0.000000,0.000000,0.000000,0.000000,0.000000,0.000000,0.000000,0.000000,0.000000,0.000000,0.000000,0.000000,0.000000,0.000000,9.758351,0.000000,0.000000,0.000000,-0.000005,0.000001,-0.000005,0.000000,0.000000,0.000000,0.000000,0.000000,0.000000,0.000000,0.000000,0.000000,0.000000,0.000000,0.000000,0.000000,0.000000,0.000000,0.000000,0.000000,0.000000,0.000000,0.000000,0.000000,0.000000,0.000000,0.000000,0.000000,0.000000,0.000000,0,0,0,0,0,0.000000,0,0,0,1,0,0,0.000000,0.000000,0.000000,0.000000,0.000000,0.000000,0,0.995075,0.000000,0.000000,0.000000,0.000000,0.000000,0.000000,-2.440981,1.037311,2.440981,-1.037311,0.000000,0,0
15436,0.911556,-0.015701,0.017001,-0.410525,0.000000,0.000000,0.000000,0.018000,0.043000,-0.995000,3,22,1,22,37.5418114,127.0795289,28.018,0.722000,1.891000,-0.005000,-0.038000,-0.015000,0.110000,1000,1000,1000,1000,1000.000000,0,0,0,0,0,1,0,0,0,3799,0.000000,0,0.000000,0.000000,0.000000,0.000000,0.000000,0.000000,0.000000,0.000000,0.000000,0.000000,0.000000,0.000000,0.000000,0.000000,0.000000,0.000000,0.000000,0.000000,0.000000,0.000000,0.000000,0.000000,0.000000,0.000000,0.000000,0.000000,0.000000,0.000000,0.000000,0.000000,0.000000,9.768319,0.000000,0.000000,0.000000,-0.000005,0.000001,-0.000005,0.000000,0.000000,0.000000,0.000000,0.000000,0.000000,0.000000,0.000000,0.000000,0.000000,0.000000,0.000000,0.000000,0.000000,0.000000,0.000000,0.000000,0.000000,0.000000,0.000000,0.000000,0.000000,0.000000,0.000000,0.000000,0.000000,0.000000,0,0,0,0,0,0.000000,0,0,0,1,0,0,0.000000,0.000000,0.000000,0.000000,0.000000,0.000000,0,0.996091,0.000000,0.000000,0.000000,0.000000,0.000000,0.000000,-2.440981,1.037311,2.440981,-1.037311,0.000000,0,0
15480,0.911556,-0.015701,0.017001,-0.410525,0.000000,0.000000,0.000000,0.017000,0.041000,-0.994000,3,22,1,22,37.5418114,127.0795289,28.018,0.722000,1.891000,-0.005000,-0.038000,-0.015000,0.110000,1000,1000,1000,1000,1000.000000,0,0,0,0,0,1,0,0,0,3843,0.000000,0,0.000000,0.000000,0.000000,0.000000,0.000000,0.000000,0.000000,0.000000,0.000000,0.000000,0.000000,0.000000,0.000000,0.000000,0.000000,0.000000,0.000000,0.000000,0.000000,0.000000,0.000000,0.000000,0.000000,0.000000,0.000000,0.000000,0.000000,0.000000,0.000000,0.000000,0.000000,9.757524,0.000000,0.000000,0.000000,-0.000005,0.000001,-0.000005,0.000000,0.000000,0.000000,0.000000,0.000000,0.000000,0.000000,0.000000,0.000000,0.000000,0.000000,0.000000,0.000000,0.000000,0.000000,0.000000,0.000000,0.000000,0.000000,0.000000,0.000000,0.000000,0.000000,0.000000,0.000000,0.000000,0.000000,0,0,0,0,0,0.000000,0,0,0,1,0,0,0.000000,0.000000,0.000000,0.000000,0.000000,0.000000,0,0.994990,0.000000,0.000000,0.000000,0.000000,0.000000,0.000000,-2.440981,1.037311,2.440981,-1.037311,0.000000,0,0
15524,0.911556,-0.015701,0.017001,-0.410525,0.000000,0.000000,0.000000,0.018000,0.042000,-0.995000,3,22,1,22,37.5418113,127.0795288,28.023,0.719000,1.882000,-0.008000,-0.047000,-0.017000,0.114000,1000,1000,1000,1000,1000.000000,0,0,0,0,0,1,0,0,0,3887,0.000000,0,0.000000,0.000000,0.000000,0.000000,0.000000,0.000000,0.000000,0.000000,0.000000,0.000000,0.000000,0.000000,0.000000,0.000000,0.000000,0.000000,0.000000,0.000000,0.000000,0.000000,0.000000,0.000000,0.000000,0.000000,0.000000,0.000000,0.000000,0.000000,0.000000,0.000000,0.000000,9.767901,0.000000,0.000000,0.000000,-0.000005,0.000001,-0.000005,0.000000,0.000000,0.000000,0.000000,0.000000,0.000000,0.000000,0.000000,0.000000,0.000000,0.000000,0.000000,0.000000,0.000000,0.000000,0.000000,0.000000,0.000000,0.000000,0.000000,0.000000,0.000000,0.000000,0.000000,0.000000,0.000000,0.000000,0,0,0,0,0,0.000000,0,0,0,1,0,0,0.000000,0.000000,0.000000,0.000000,0.000000,0.000000,0,0.996049,0.000000,0.000000,0.000000,0.000000,0.000000,0.000000,-2.440981,1.037311,2.440981,-1.037311,0.000000,0,0
15571,0.911556,-0.015701,0.017001,-0.410525,0.000000,0.000000,0.000000,0.016000,0.042000,-0.996000,3,22,1,22,37.5418113,127.0795288,28.023,0.719000,1.882000,-0.008000,-0.047000,-0.017000,0.114000,1000,1000,1000,1000,1000.000000,0,0,0,0,0,1,0,0,0,3934,0.000000,0,0.000000,0.000000,0.000000,0.000000,0.000000,0.000000,0.000000,0.000000,0.000000,0.000000,0.000000,0.000000,0.000000,0.000000,0.000000,0.000000,0.000000,0.000000,0.000000,0.000000,0.000000,0.000000,0.000000,0.000000,0.000000,0.000000,0.000000,0.000000,0.000000,0.000000,0.000000,9.777363,0.000000,0.000000,0.000000,-0.000005,0.000001,-0.000005,0.000000,0.000000,0.000000,0.000000,0.000000,0.000000,0.000000,0.000000,0.000000,0.000000,0.000000,0.000000,0.000000,0.000000,0.000000,0.000000,0.000000,0.000000,0.000000,0.000000,0.000000,0.000000,0.000000,0.000000,0.000000,0.000000,0.000000,0,0,0,0,0,0.000000,0,0,0,1,0,0,0.000000,0.000000,0.000000,0.000000,0.000000,0.000000,0,0.997014,0.000000,0.000000,0.000000,0.000000,0.000000,0.000000,-2.440981,1.037311,2.440981,-1.037311,0.000000,0,0
15615,0.911556,-0.015701,0.017001,-0.410525,0.000000,0.000000,0.000000,0.017000,0.043000,-0.994000,3,22,1,22,37.5418113,127.0795288,28.023,0.719000,1.882000,-0.008000,-0.047000,-0.017000,0.114000,1000,1000,1000,1000,1000.000000,0,0,0,0,0,1,0,0,0,3978,0.000000,0,0.000000,0.000000,0.000000,0.000000,0.000000,0.000000,0.000000,0.000000,0.000000,0.000000,0.000000,0.000000,0.000000,0.000000,0.000000,0.000000,0.000000,0.000000,0.000000,0.000000,0.000000,0.000000,0.000000,0.000000,0.000000,0.000000,0.000000,0.000000,0.000000,0.000000,0.000000,9.758351,0.000000,0.000000,0.000000,-0.000005,0.000001,-0.000005,0.000000,0.000000,0.000000,0.000000,0.000000,0.000000,0.000000,0.000000,0.000000,0.000000,0.000000,0.000000,0.000000,0.000000,0.000000,0.000000,0.000000,0.000000,0.000000,0.000000,0.000000,0.000000,0.000000,0.000000,0.000000,0.000000,0.000000,0,0,0,0,0,0.000000,0,0,0,1,0,0,0.000000,0.000000,0.000000,0.000000,0.000000,0.000000,0,0.995075,0.000000,0.000000,0.000000,0.000000,0.000000,0.000000,-2.440981,1.037311,2.440981,-1.037311,0.000000,0,0
15685,0.911556,-0.015701,0.017001,-0.410525,0.000000,0.000000,0.000000,0.017000,0.041000,-0.995000,3,22,1,22,37.5418113,127.0795288,28.033,0.716000,1.873000,-0.038000,0.020000,-0.026000,0.111000,1000,1000,1000,1000,1000.000000,0,0,0,0,0,1,0,0,0,4048,0.000000,0,0.000000,0.000000,0.000000,0.000000,0.000000,0.000000,0.000000,0.000000,0.000000,0.000000,0.000000,0.000000,0.000000,0.000000,0.000000,0.000000,0.000000,0.000000,0.000000,0.000000,0.000000,0.000000,0.000000,0.000000,0.000000,0.000000,0.000000,0.000000,0.000000,0.000000,0.000000,9.767320,0.000000,0.000000,0.000000,-0.000005,0.000001,-0.000005,0.000000,0.000000,0.000000,0.000000,0.000000,0.000000,0.000000,0.000000,0.000000,0.000000,0.000000,0.000000,0.000000,0.000000,0.000000,0.000000,0.000000,0.000000,0.000000,0.000000,0.000000,0.000000,0.000000,0.000000,0.000000,0.000000,0.000000,0,0,0,0,0,0.000000,0,0,0,1,0,0,0.000000,0.000000,0.000000,0.000000,0.000000,0.000000,0,0.995989,0.000000,0.000000,0.000000,0.000000,0.000000,0.000000,-2.440981,1.037311,2.440981,-1.037311,0.000000,0,0
15730,0.911556,-0.015701,0.017001,-0.410525,0.000000,0.000000,0.000000,0.017000,0.042000,-0.995000,3,22,1,22,37.5418113,127.0795288,28.033,0.716000,1.873000,-0.038000,0.020000,-0.026000,0.111000,1000,1000,1000,1000,1000.000000,0,0,0,0,0,1,0,0,0,4093,0.000000,0,0.000000,0.000000,0.000000,0.000000,0.000000,0.000000,0.000000,0.000000,0.000000,0.000000,0.000000,0.000000,0.000000,0.000000,0.000000,0.000000,0.000000,0.000000,0.000000,0.000000,0.000000,0.000000,0.000000,0.000000,0.000000,0.000000,0.000000,0.000000,0.000000,0.000000,0.000000,9.767729,0.000000,0.000000,0.000000,-0.000005,0.000001,-0.000005,0.000000,0.000000,0.000000,0.000000,0.000000,0.000000,0.000000,0.000000,0.000000,0.000000,0.000000,0.000000,0.000000,0.000000,0.000000,0.000000,0.000000,0.000000,0.000000,0.000000,0.000000,0.000000,0.000000,0.000000,0.000000,0.000000,0.000000,0,0,0,0,0,0.000000,0,0,0,1,0,0,0.000000,0.000000,0.000000,0.000000,0.000000,0.000000,0,0.996031,0.000000,0.000000,0.000000,0.000000,0.000000,0.000000,-2.440981,1.037311,2.440981,-1.037311,0.000000,0,0
15774,0.911556,-0.015701,0.017001,-0.410525,0.000000,0.000000,0.000000,0.018000,0.042000,-0.996000,3,22,1,22,37.5418112,127.0795287,28.033,0.713000,1.864000,-0.005000,-0.057000,-0.030000,0.115000,1000,1000,1000,1000,1000.000000,0,0,0,0,0,1,0,0,0,4137,0.000000,0,0.000000,0.000000,0.000000,0.000000,0.000000,0.000000,0.000000,0.000000,0.000000,0.000000,0.000000,0.000000,0.000000,0.000000,0.000000,0.000000,0.000000,0.000000,0.000000,0.000000,0.000000,0.000000,0.000000,0.000000,0.000000,0.000000,0.000000,0.000000,0.000000,0.000000,0.000000,9.777697,0.000000,0.000000,0.000000,-0.000005,0.000001,-0.000005,0.000000,0.000000,0.000000,0.000000,0.000000,0.000000,0.000000,0.000000,0.000000,0.000000,0.000000,0.000000,0.000000,0.000000,0.000000,0.000000,0.000000,0.000000,0.000000,0.000000,0.000000,0.000000,0.000000,0.000000,0.000000,0.000000,0.000000,0,0,0,0,0,0.000000,0,0,0,1,0,0,0.000000,0.000000,0.000000,0.000000,0.000000,0.000000,0,0.997048,0.000000,0.000000,0.000000,0.000000,0.000000,0.000000,-2.440981,1.037311,2.440981,-1.037311,0.000000,0,0
15843,0.911556,-0.015701,0.017001,-0.410525,0.000000,0.000000,0.000000,0.017000,0.043000,-0.994000,3,22,1,22,37.5418112,127.0795287,28.033,0.713000,1.864000,-0.005000,-0.057000,-0.030000,0.115000,1000,1000,1000,1000,1000.000000,0,0,0,0,0,1,0,0,0,4206,0.000000,0,0.000000,0.000000,0.000000,0.000000,0.000000,0.000000,0.000000,0.000000,0.000000,0.000000,0.000000,0.000000,0.000000,0.000000,0.000000,0.000000,0.000000,0.000000,0.000000,0.000000,0.000000,0.000000,0.000000,0.000000,0.000000,0.000000,0.000000,0.000000,0.000000,0.000000,0.000000,9.758351,0.000000,0.000000,0.000000,-0.000005,0.000001,-0.000005,0.000000,0.000000,0.000000,0.000000,0.000000,0.000000,0.000000,0.000000,0.000000,0.000000,0.000000,0.000000,0.000000,0.000000,0.000000,0.000000,0.000000,0.000000,0.000000,0.000000,0.000000,0.000000,0.000000,0.000000,0.000000,0.000000,0.000000,0,0,0,0,0,0.000000,0,0,0,1,0,0,0.000000,0.000000,0.000000,0.000000,0.000000,0.000000,0,0.995075,0.000000,0.000000,0.000000,0.000000,0.000000,0.000000,-2.440981,1.037311,2.440981,-1.037311,0.000000,0,0
15867,0.911556,-0.015701,0.017001,-0.410525,0.000000,0.000000,0.000000,0.019000,0.042000,-0.996000,3,22,1,22,37.5418112,127.0795287,28.033,0.713000,1.864000,-0.005000,-0.057000,-0.030000,0.115000,1000,1000,1000,1000,1000.000000,0,0,0,0,0,1,0,0,0,4230,0.000000,0,0.000000,0.000000,0.000000,0.000000,0.000000,0.000000,0.000000,0.000000,0.000000,0.000000,0.000000,0.000000,0.000000,0.000000,0.000000,0.000000,0.000000,0.000000,0.000000,0.000000,0.000000,0.000000,0.000000,0.000000,0.000000,0.000000,0.000000,0.000000,0.000000,0.000000,0.000000,9.777880,0.000000,0.000000,0.000000,-0.000005,0.000001,-0.000005,0.000000,0.000000,0.000000,0.000000,0.000000,0.000000,0.000000,0.000000,0.000000,0.000000,0.000000,0.000000,0.000000,0.000000,0.000000,0.000000,0.000000,0.000000,0.000000,0.000000,0.000000,0.000000,0.000000,0.000000,0.000000,0.000000,0.000000,0,0,0,0,0,0.000000,0,0,0,1,0,0,0.000000,0.000000,0.000000,0.000000,0.000000,0.000000,0,0.997066,0.000000,0.000000,0.000000,0.000000,0.000000,0.000000,-2.440981,1.037311,2.440981,-1.037311,0.000000,0,0
15891,0.911556,-0.015701,0.017001,-0.410525,0.000000,0.000000,0.000000,0.018000,0.042000,-0.996000,3,22,1,22,37.5418112,127.0795287,28.033,0.713000,1.864000,-0.005000,-0.057000,-0.030000,0.115000,1000,1000,1000,1000,1000.000000,0,0,0,0,0,1,0,0,0,4254,0.000000,0,0.000000,0.000000,0.000000,0.000000,0.000000,0.000000,0.000000,0.000000,0.000000,0.000000,0.000000,0.000000,0.000000,0.000000,0.000000,0.000000,0.000000,0.000000,0.000000,0.000000,0.000000,0.000000,0.000000,0.000000,0.000000,0.000000,0.000000,0.000000,0.000000,0.000000,0.000000,9.777697,0.000000,0.000000,0.000000,-0.000005,0.000001,-0.000005,0.000000,0.000000,0.000000,0.000000,0.000000,0.000000,0.000000,0.000000,0.000000,0.000000,0.000000,0.000000,0.000000,0.000000,0.000000,0.000000,0.000000,0.000000,0.000000,0.000000,0.000000,0.000000,0.000000,0.000000,0.000000,0.000000,0.000000,0,0,0,0,0,0.000000,0,0,0,1,0,0,0.000000,0.000000,0.000000,0.000000,0.000000,0.000000,0,0.997048,0.000000,0.000000,0.000000,0.000000,0.000000,0.000000,-2.440981,1.037311,2.440981,-1.037311,0.000000,0,0
15935,0.911556,-0.015701,0.017001,-0.410525,0.000000,0.000000,0.000000,0.017000,0.042000,-0.994000,3,22,1,22,37.5418113,127.0795287,28.021,0.710000,1.856000,0.033000,0.010000,-0.021000,0.090000,1000,1000,1000,1000,1000.000000,0,0,0,0,0,1,0,0,0,4298,0.000000,0,0.000000,0.000000,0.000000,0.000000,0.000000,0.000000,0.000000,0.000000,0.000000,0.000000,0.000000,0.000000,0.000000,0.000000,0.000000,0.000000,0.000000,0.000000,0.000000,0.000000,0.000000,0.000000,0.000000,0.000000,0.000000,0.000000,0.000000,0.000000,0.000000,0.000000,0.000000,9.757933,0.000000,0.000000,0.000000,-0.000005,0.000001,-0.000005,0.000000,0.000000,0.000000,0.000000,0.000000,0.000000,0.000000,0.000000,0.000000,0.000000,0.000000,0.000000,0.000000,0.000000,0.000000,0.000000,0.000000,0.000000,0.000000,0.000000,0.000000,0.000000,0.000000,0.000000,0.000000,0.000000,0.000000,0,0,0,0,0,0.000000,0,0,0,1,0,0,0.000000,0.000000,0.000000,0.000000,0.000000,0.000000,0,0.995032,0.000000,0.000000,0.000000,0.000000,0.000000,0.000000,-2.440981,1.037311,2.440981,-1.037311,0.000000,0,0
15986,0.911556,-0.015701,0.017001,-0.410525,0.000000,0.000000,0.000000,0.017000,0.042000,-0.994000,3,22,1,22,37.5418113,127.0795287,28.021,0.710000,1.856000,0.033000,0.010000,-0.021000,0.090000,1000,1000,1000,1000,1000.000000,0,0,0,0,0,1,0,0,0,4349,0.000000,0,0.000000,0.000000,0.000000,0.000000,0.000000,0.000000,0.000000,0.000000,0.000000,0.000000,0.000000,0.000000,0.000000,0.000000,0.000000,0.000000,0.000000,0.000000,0.000000,0.000000,0.000000,0.000000,0.000000,0.000000,0.000000,0.000000,0.000000,0.000000,0.000000,0.000000,0.000000,9.757933,0.000000,0.000000,0.000000,-0.000005,0.000001,-0.000005,0.000000,0.000000,0.000000,0.000000,0.000000,0.000000,0.000000,0.000000,0.000000,0.000000,0.000000,0.000000,0.000000,0.000000,0.000000,0.000000,0.000000,0.000000,0.000000,0.000000,0.000000,0.000000,0.000000,0.000000,0.000000,0.000000,0.000000,0,0,0,0,0,0.000000,0,0,0,1,0,0,0.000000,0.000000,0.000000,0.000000,0.000000,0.000000,0,0.995032,0.000000,0.000000,0.000000,0.000000,0.000000,0.000000,-2.440981,1.037311,2.440981,-1.037311,0.000000,0,0
16010,0.911556,-0.015701,0.017001,-0.410525,0.000000,0.000000,0.000000,0.016000,0.042000,-0.995000,3,22,1,22,37.5418113,127.0795287,28.004,0.707000,1.847000,-0.049000,-0.008000,-0.023000,0.115000,1000,1000,1000,1000,1000.000000,0,0,0,0,0,1,0,0,0,4373,0.000000,0,0.000000,0.000000,0.000000,0.000000,0.000000,0.000000,0.000000,0.000000,0.000000,0.000000,0.000000,0.000000,0.000000,0.000000,0.000000,0.000000,0.000000,0.000000,0.000000,0.000000,0.000000,0.000000,0.000000,0.000000,0.000000,0.000000,0.000000,0.000000,0.000000,0.000000,0.000000,9.767566,0.000000,0.000000,0.000000,-0.000005,0.000001,-0.000005,0.000000,0.000000,0.000000,0.000000,0.000000,0.000000,0.000000,0.000000,0.000000,0.000000,0.000000,0.000000,0.000000,0.000000,0.000000,0.000000,0.000000,0.000000,0.000000,0.000000,0.000000,0.000000,0.000000,0.000000,0.000000,0.000000,0.000000,0,0,0,0,0,0.000000,0,0,0,1,0,0,0.000000,0.000000,0.000000,0.000000,0.000000,0.000000,0,0.996015,0.000000,0.000000,0.000000,0.000000,0.000000,0.000000,-2.440981,1.037311,2.440981,-1.037311,0.000000,0,0
16054,0.911556,-0.015701,0.017001,-0.410525,0.000000,0.000000,0.000000,0.017000,0.042000,-0.995000,3,22,1,22,37.5418113,127.0795287,28.004,0.707000,1.847000,-0.049000,-0.008000,-0.023000,0.115000,1000,1000,1000,1000,1000.000000,0,0,0,0,0,1,0,0,0,4417,0.000000,0,0.000000,0.000000,0.000000,0.000000,0.000000,0.000000,0.000000,0.000000,0.000000,0.000000,0.000000,0.000000,0.000000,0.000000,0.000000,0.000000,0.000000,0.000000,0.000000,0.000000,0.000000,0.000000,0.000000,0.000000,0.000000,0.000000,0.000000,0.000000,0.000000,0.000000,0.000000,9.767729,0.000000,0.000000,0.000000,-0.000005,0.000001,-0.000005,0.000000,0.000000,0.000000,0.000000,0.000000,0.000000,0.000000,0.000000,0.000000,0.000000,0.000000,0.000000,0.000000,0.000000,0.000000,0.000000,0.000000,0.000000,0.000000,0.000000,0.000000,0.000000,0.000000,0.000000,0.000000,0.000000,0.000000,0,0,0,0,0,0.000000,0,0,0,1,0,0,0.000000,0.000000,0.000000,0.000000,0.000000,0.000000,0,0.996031,0.000000,0.000000,0.000000,0.000000,0.000000,0.000000,-2.440981,1.037311,2.440981,-1.037311,0.000000,0,0
16099,0.911556,-0.015701,0.017001,-0.410525,0.000000,0.000000,0.000000,0.017000,0.043000,-0.995000,3,22,1,22,37.5418113,127.0795287,28.004,0.707000,1.847000,-0.049000,-0.008000,-0.023000,0.115000,1000,1000,1000,1000,1000.000000,0,0,0,0,0,1,0,0,0,4462,0.000000,0,0.000000,0.000000,0.000000,0.000000,0.000000,0.000000,0.000000,0.000000,0.000000,0.000000,0.000000,0.000000,0.000000,0.000000,0.000000,0.000000,0.000000,0.000000,0.000000,0.000000,0.000000,0.000000,0.000000,0.000000,0.000000,0.000000,0.000000,0.000000,0.000000,0.000000,0.000000,9.768147,0.000000,0.000000,0.000000,-0.000005,0.000001,-0.000005,0.000000,0.000000,0.000000,0.000000,0.000000,0.000000,0.000000,0.000000,0.000000,0.000000,0.000000,0.000000,0.000000,0.000000,0.000000,0.000000,0.000000,0.000000,0.000000,0.000000,0.000000,0.000000,0.000000,0.000000,0.000000,0.000000,0.000000,0,0,0,0,0,0.000000,0,0,0,1,0,0,0.000000,0.000000,0.000000,0.000000,0.000000,0.000000,0,0.996074,0.000000,0.000000,0.000000,0.000000,0.000000,0.000000,-2.440981,1.037311,2.440981,-1.037311,0.000000,0,0
16164,0.911557,-0.015701,0.016901,-0.410526,0.000000,0.000000,0.000000,0.018000,0.042000,-0.995000,3,22,1,22,37.5418113,127.0795287,27.994,0.704000,1.838000,0.047000,0.037000,-0.028000,0.102000,1000,1000,1000,1000,1000.000000,0,0,0,0,0,1,0,0,0,4527,0.000000,0,0.000000,0.000000,0.000000,0.000000,0.000000,0.000000,0.000000,0.000000,0.000000,0.000000,0.000000,0.000000,0.000000,0.000000,0.000000,0.000000,0.000000,0.000000,0.000000,0.000000,0.000000,0.000000,0.000000,0.000000,0.000000,0.000000,0.000000,0.000000,0.000000,0.000000,0.000000,9.767901,0.000000,0.000000,0.000000,-0.000005,0.000001,-0.000005,0.000000,0.000000,0.000000,0.000000,0.000000,0.000000,0.000000,0.000000,0.000000,0.000000,0.000000,0.000000,0.000000,0.000000,0.000000,0.000000,0.000000,0.000000,0.000000,0.000000,0.000000,0.000000,0.000000,0.000000,0.000000,0.000000,0.000000,0,0,0,0,0,0.000000,0,0,0,1,0,0,0.000000,0.000000,0.000000,0.000000,0.000000,0.000000,0,0.996049,0.000000,0.000000,0.000000,0.000000,0.000000,0.000000,-2.436273,1.026867,2.436273,-1.026867,0.160683,0,0
16188,0.911557,-0.015701,0.016901,-0.410526,0.000000,0.000000,0.000000,0.018000,0.043000,-0.996000,3,22,1,22,37.5418113,127.0795287,27.994,0.704000,1.838000,0.047000,0.037000,-0.028000,0.102000,1000,1000,1000,1000,1000.000000,0,0,0,0,0,1,0,0,0,4551,0.000000,0,0.000000,0.000000,0.000000,0.000000,0.000000,0.000000,0.000000,0.000000,0.000000,0.000000,0.000000,0.000000,0.000000,0.000000,0.000000,0.000000,0.000000,0.000000,0.000000,0.000000,0.000000,0.000000,0.000000,0.000000,0.000000,0.000000,0.000000,0.000000,0.000000,0.000000,0.000000,9.778115,0.000000,0.000000,0.000000,-0.000005,0.000001,-0.000005,0.000000,0.000000,0.000000,0.000000,0.000000,0.000000,0.000000,0.000000,0.000000,0.000000,0.000000,0.000000,0.000000,0.000000,0.000000,0.000000,0.000000,0.000000,0.000000,0.000000,0.000000,0.000000,0.000000,0.000000,0.000000,0.000000,0.000000,0,0,0,0,0,0.000000,0,0,0,1,0,0,0.000000,0.000000,0.000000,0.000000,0.000000,0.000000,0,0.997090,0.000000,0.000000,0.000000,0.000000,0.000000,0.000000,-2.436273,1.026867,2.436273,-1.026867,0.000000,0,0
16212,0.911557,-0.015701,0.016901,-0.410526,0.000000,0.000000,0.000000,0.016000,0.040000,-0.995000,3,22,1,22,37.5418113,127.0795287,27.994,0.704000,1.838000,0.047000,0.037000,-0.028000,0.102000,1000,1000,1000,1000,1000.000000,0,0,0,0,0,1,0,0,0,4575,0.000000,0,0.000000,0.000000,0.000000,0.000000,0.000000,0.000000,0.000000,0.000000,0.000000,0.000000,0.000000,0.000000,0.000000,0.000000,0.000000,0.000000,0.000000,0.000000,0.000000,0.000000,0.000000,0.000000,0.000000,0.000000,0.000000,0.000000,0.000000,0.000000,0.000000,0.000000,0.000000,9.766759,0.000000,0.000000,0.000000,-0.000005,0.000001,-0.000005,0.000000,0.000000,0.000000,0.000000,0.000000,0.000000,0.000000,0.000000,0.000000,0.000000,0.000000,0.000000,0.000000,0.000000,0.000000,0.000000,0.000000,0.000000,0.000000,0.000000,0.000000,0.000000,0.000000,0.000000,0.000000,0.000000,0.000000,0,0,0,0,0,0.000000,0,0,0,1,0,0,0.000000,0.000000,0.000000,0.000000,0.000000,0.000000,0,0.995932,0.000000,0.000000,0.000000,0.000000,0.000000,0.000000,-2.436273,1.026867,2.436273,-1.026867,0.000000,0,0
16256,0.911557,-0.015701,0.016901,-0.410526,0.000000,0.000000,0.000000,0.017000,0.042000,-0.995000,3,22,1,22,37.5418113,127.0795287,27.994,0.704000,1.838000,0.047000,0.037000,-0.028000,0.102000,1000,1000,1000,1000,1000.000000,0,0,0,0,0,1,0,0,0,4619,0.000000,0,0.000000,0.000000,0.000000,0.000000,0.000000,0.000000,0.000000,0.000000,0.000000,0.000000,0.000000,0.000000,0.000000,0.000000,0.000000,0.000000,0.000000,0.000000,0.000000,0.000000,0.000000,0.000000,0.000000,0.000000,0.000000,0.000000,0.000000,0.000000,0.000000,0.000000,0.000000,9.767729,0.000000,0.000000,0.000000,-0.000005,0.000001,-0.000005,0.000000,0.000000,0.000000,0.000000,0.000000,0.000000,0.000000,0.000000,0.000000,0.000000,0.000000,0.000000,0.000000,0.000000,0.000000,0.000000,0.000000,0.000000,0.000000,0.000000,0.000000,0.000000,0.000000,0.000000,0.000000,0.000000,0.000000,0,0,0,0,0,0.000000,0,0,0,1,0,0,0.000000,0.000000,0.000000,0.000000,0.000000,0.000000,0,0.996031,0.000000,0.000000,0.000000,0.000000,0.000000,0.000000,-2.436273,1.026867,2.436273,-1.026867,0.000000,0,0
16300,0.911557,-0.015701,0.016901,-0.410526,0.000000,0.000000,0.000000,0.018000,0.043000,-0.995000,3,22,1,22,37.5418113,127.0795287,27.979,0.701000,1.829000,-0.017000,-0.002000,-0.020000,0.131000,1000,1000,1000,1000,1000.000000,0,0,0,0,0,1,0,0,0,4663,0.000000,0,0.000000,0.000000,0.000000,0.000000,0.000000,0.000000,0.000000,0.000000,0.000000,0.000000,0.000000,0.000000,0.000000,0.000000,0.000000,0.000000,0.000000,0.000000,0.000000,0.000000,0.000000,0.000000,0.000000,0.000000,0.000000,0.000000,0.000000,0.000000,0.000000,0.000000,0.000000,9.768319,0.000000,0.000000,0.000000,-0.000005,0.000001,-0.000005,0.000000,0.000000,0.000000,0.000000,0.000000,0.000000,0.000000,0.000000,0.000000,0.000000,0.000000,0.000000,0.000000,0.000000,0.000000,0.000000,0.000000,0.000000,0.000000,0.000000,0.000000,0.000000,0.000000,0.000000,0.000000,0.000000,0.000000,0,0,0,0,0,0.000000,0,0,0,1,0,0,0.000000,0.000000,0.000000,0.000000,0.000000,0.000000,0,0.996091,0.000000,0.000000,0.000000,0.000000,0.000000,0.000000,-2.436273,1.026867,2.436273,-1.026867,0.000000,0,0
