timestamp_ms,qw,qx,qy,qz,gx,gy,gz,ax,ay,az,gnss_fix_type,numSV,gnss_valid,gnss_num_sats,lat,lon,hmsl,gnss_hacc_m,gnss_vacc_m,gnss_vel_n_mps,gnss_vel_e_mps,gnss_vel_d_mps,gnss_sacc_mps,M1,M2,M3,M4,ekf_pwm_mean,ekf_is_armed,ekf_ground_motor_mode,motor_output_allowed,motor_on_detected,alignment_active,alignment_done,ekf_ready,gnss_ref_set,gnss_ref_ready,gnss_ref_age_ms,ekf_dt,ekf_dt_clamped,ekf_pos_n,ekf_pos_e,ekf_pos_d,ekf_vel_n,ekf_vel_e,ekf_vel_d,ekf_p_cov_n,ekf_p_cov_e,ekf_p_cov_d,ekf_v_cov_n,ekf_v_cov_e,ekf_v_cov_d,ekf_qw,ekf_qx,ekf_qy,ekf_qz,ekf_roll_deg,ekf_pitch_deg,ekf_yaw_deg,roll_deg,pitch_deg,yaw_deg,ekf_accel_body_x,ekf_accel_body_y,ekf_accel_body_z,ekf_accel_nav_n,ekf_accel_nav_e,ekf_accel_nav_d,acc_ned_n,acc_ned_e,acc_ned_d,accel_norm,accel_bias_x,accel_bias_y,accel_bias_z,gyro_bias_x,gyro_bias_y,gyro_bias_z,ekf_bias_acc_x,ekf_bias_acc_y,ekf_bias_acc_z,ekf_bias_gyro_x,ekf_bias_gyro_y,ekf_bias_gyro_z,ekf_gnss_pos_n,ekf_gnss_pos_e,ekf_gnss_pos_d,ekf_innov_pos_n,ekf_innov_pos_e,ekf_innov_pos_d,ekf_innov_vel_n,ekf_innov_vel_e,ekf_innov_vel_d,ekf_R_applied_gnss_pos_n,ekf_R_applied_gnss_pos_e,ekf_R_applied_gnss_pos_d,ekf_R_applied_gnss_vel_n,ekf_R_applied_gnss_vel_e,ekf_R_applied_gnss_vel_d,ekf_sigma_applied_gnss_pos_n,ekf_sigma_applied_gnss_pos_e,ekf_sigma_applied_gnss_pos_d,ekf_sigma_applied_gnss_vel_n,ekf_sigma_applied_gnss_vel_e,ekf_sigma_applied_gnss_vel_d,gnss_correction_accepted,gnss_update_executed,gnss_new_measurement,gnss_velocity_used,gnss_position_gate_passed,gnss_update_dt,gnss_last_update_age_ms,gnss_innov_gate_reject_count,ekf_zupt_applied,ekf_zupt_allowed,zupt_active,stationary_detected,delta_vel_gnss_update_n,delta_vel_gnss_update_e,delta_vel_gnss_update_d,delta_vel_zupt_update_n,delta_vel_zupt_update_e,delta_vel_zupt_update_d,tether_disturbance_candidate,raw_acc_norm_g,acc_ned_h,ekf_speed_h,delta_vel_gnss_update_xy,gyro_raw_norm,gyro_lpf_norm,gyro_corrected_norm,imu_fw_roll_deg,imu_fw_pitch_deg,ekf_imu_roll_diff_deg,ekf_imu_pitch_diff_deg,pitch_diff_rate_deg_s,accel_rotation_source,accel_rotation_source_used
11576,0.388420,0.004900,-0.006500,-0.921447,0.000000,0.000000,0.000000,0.004000,-0.015000,-0.996000,0,0,0,0,0.0000000,0.0000000,0.000,0.000000,0.000000,0.000000,0.000000,0.000000,0.000000,1000,1000,1000,1000,1000.000000,0,0,0,0,1,0,0,0,0,0,0.000000,0,0.000000,0.000000,0.000000,0.000000,0.000000,0.000000,0.000000,0.000000,0.000000,0.000000,0.000000,0.000000,0.000000,0.000000,0.000000,0.000000,0.000000,0.000000,0.000000,0.000000,0.000000,0.000000,0.000000,0.000000,0.000000,0.000000,0.000000,0.000000,0.000000,0.000000,0.000000,9.768609,0.000000,0.000000,0.000000,0.000000,0.000000,0.000000,0.000000,0.000000,0.000000,0.000000,0.000000,0.000000,0.000000,0.000000,0.000000,0.000000,0.000000,0.000000,0.000000,0.000000,0.000000,0.000000,0.000000,0.000000,0.000000,0.000000,0.000000,0.000000,0.000000,0.000000,0.000000,0.000000,0.000000,0,0,0,0,0,0.000000,0,0,0,1,0,0,0.000000,0.000000,0.000000,0.000000,0.000000,0.000000,0,0.996121,0.000000,0.000000,0.000000,0.000000,0.000000,0.000000,0.904523,0.228091,-0.904523,-0.228091,0.000000,0,0
11623,0.388420,0.004900,-0.006500,-0.921447,0.000000,0.000000,0.000000,0.002000,-0.016000,-0.999000,0,0,0,0,0.0000000,0.0000000,0.000,0.000000,0.000000,0.000000,0.000000,0.000000,0.000000,1000,1000,1000,1000,1000.000000,0,0,0,0,1,0,0,0,0,0,0.000000,0,0.000000,0.000000,0.000000,0.000000,0.000000,0.000000,0.000000,0.000000,0.000000,0.000000,0.000000,0.000000,0.000000,0.000000,0.000000,0.000000,0.000000,0.000000,0.000000,0.000000,0.000000,0.000000,0.000000,0.000000,0.000000,0.000000,0.000000,0.000000,0.000000,0.000000,0.000000,9.798120,0.000000,0.000000,0.000000,0.000000,0.000000,0.000000,0.000000,0.000000,0.000000,0.000000,0.000000,0.000000,0.000000,0.000000,0.000000,0.000000,0.000000,0.000000,0.000000,0.000000,0.000000,0.000000,0.000000,0.000000,0.000000,0.000000,0.000000,0.000000,0.000000,0.000000,0.000000,0.000000,0.000000,0,0,0,0,0,0.000000,0,0,0,1,0,0,0.000000,0.000000,0.000000,0.000000,0.000000,0.000000,0,0.999130,0.000000,0.000000,0.000000,0.000000,0.000000,0.000000,0.904523,0.228091,-0.904523,-0.228091,0.000000,0,0
11667,0.388420,0.004900,-0.006500,-0.921447,0.000000,0.000000,0.000000,0.003000,-0.014000,-0.996000,0,0,0,0,0.0000000,0.0000000,0.000,0.000000,0.000000,0.000000,0.000000,0.000000,0.000000,1000,1000,1000,1000,1000.000000,0,0,0,0,1,0,0,0,0,0,0.000000,0,0.000000,0.000000,0.000000,0.000000,0.000000,0.000000,0.000000,0.000000,0.000000,0.000000,0.000000,0.000000,0.000000,0.000000,0.000000,0.000000,0.000000,0.000000,0.000000,0.000000,0.000000,0.000000,0.000000,0.000000,0.000000,0.000000,0.000000,0.000000,0.000000,0.000000,0.000000,9.768433,0.000000,0.000000,0.000000,0.000000,0.000000,0.000000,0.000000,0.000000,0.000000,0.000000,0.000000,0.000000,0.000000,0.000000,0.000000,0.000000,0.000000,0.000000,0.000000,0.000000,0.000000,0.000000,0.000000,0.000000,0.000000,0.000000,0.000000,0.000000,0.000000,0.000000,0.000000,0.000000,0.000000,0,0,0,0,0,0.000000,0,0,0,1,0,0,0.000000,0.000000,0.000000,0.000000,0.000000,0.000000,0,0.996103,0.000000,0.000000,0.000000,0.000000,0.000000,0.000000,0.904523,0.228091,-0.904523,-0.228091,0.000000,0,0
11711,0.388420,0.004900,-0.006500,-0.921447,0.000000,0.000000,0.000000,0.004000,-0.014000,-0.997000,0,0,0,0,0.0000000,0.0000000,0.000,0.000000,0.000000,0.000000,0.000000,0.000000,0.000000,1000,1000,1000,1000,1000.000000,0,0,0,0,1,0,0,0,0,0,0.000000,0,0.000000,0.000000,0.000000,0.000000,0.000000,0.000000,0.000000,0.000000,0.000000,0.000000,0.000000,0.000000,0.000000,0.000000,0.000000,0.000000,0.000000,0.000000,0.000000,0.000000,0.000000,0.000000,0.000000,0.000000,0.000000,0.000000,0.000000,0.000000,0.000000,0.000000,0.000000,9.778273,0.000000,0.000000,0.000000,0.000000,0.000000,0.000000,0.000000,0.000000,0.000000,0.000000,0.000000,0.000000,0.000000,0.000000,0.000000,0.000000,0.000000,0.000000,0.000000,0.000000,0.000000,0.000000,0.000000,0.000000,0.000000,0.000000,0.000000,0.000000,0.000000,0.000000,0.000000,0.000000,0.000000,0,0,0,0,0,0.000000,0,0,0,1,0,0,0.000000,0.000000,0.000000,0.000000,0.000000,0.000000,0,0.997106,0.000000,0.000000,0.000000,0.000000,0.000000,0.000000,0.904523,0.228091,-0.904523,-0.228091,0.000000,0,0
11739,0.388420,0.004900,-0.006500,-0.921447,0.000000,0.000000,0.000000,0.003000,-0.015000,-0.997000,0,0,0,0,0.0000000,0.0000000,0.000,0.000000,0.000000,0.000000,0.000000,0.000000,0.000000,1000,1000,1000,1000,1000.000000,0,0,0,0,1,0,0,0,0,0,0.000000,0,0.000000,0.000000,0.000000,0.000000,0.000000,0.000000,0.000000,0.000000,0.000000,0.000000,0.000000,0.000000,0.000000,0.000000,0.000000,0.000000,0.000000,0.000000,0.000000,0.000000,0.000000,0.000000,0.000000,0.000000,0.000000,0.000000,0.000000,0.000000,0.000000,0.000000,0.000000,9.778381,0.000000,0.000000,0.000000,0.000000,0.000000,0.000000,0.000000,0.000000,0.000000,0.000000,0.000000,0.000000,0.000000,0.000000,0.000000,0.000000,0.000000,0.000000,0.000000,0.000000,0.000000,0.000000,0.000000,0.000000,0.000000,0.000000,0.000000,0.000000,0.000000,0.000000,0.000000,0.000000,0.000000,0,0,0,0,0,0.000000,0,0,0,1,0,0,0.000000,0.000000,0.000000,0.000000,0.000000,0.000000,0,0.997117,0.000000,0.000000,0.000000,0.000000,0.000000,0.000000,0.904523,0.228091,-0.904523,-0.228091,0.000000,0,0
11787,0.388420,0.004900,-0.006500,-0.921447,0.000000,0.000000,0.000000,0.003000,-0.017000,-0.997000,3,22,1,22,37.5417941,127.0795459,37.683,0.790000,1.826000,0.022000,-0.006000,0.023000,0.126000,1000,1000,1000,1000,1000.000000,0,0,0,0,1,0,0,0,0,8,0.000000,0,0.000000,0.000000,0.000000,0.000000,0.000000,0.000000,0.000000,0.000000,0.000000,0.000000,0.000000,0.000000,0.000000,0.000000,0.000000,0.000000,0.000000,0.000000,0.000000,0.000000,0.000000,0.000000,0.000000,0.000000,0.000000,0.000000,0.000000,0.000000,0.000000,0.000000,0.000000,9.778695,0.000000,0.000000,0.000000,0.000000,0.000000,0.000000,0.000000,0.000000,0.000000,0.000000,0.000000,0.000000,0.000000,0.000000,0.000000,0.000000,0.000000,0.000000,0.000000,0.000000,0.000000,0.000000,0.000000,0.000000,0.000000,0.000000,0.000000,0.000000,0.000000,0.000000,0.000000,0.000000,0.000000,0,0,0,0,0,0.000000,0,0,0,1,0,0,0.000000,0.000000,0.000000,0.000000,0.000000,0.000000,0,0.997149,0.000000,0.000000,0.000000,0.000000,0.000000,0.000000,0.904523,0.228091,-0.904523,-0.228091,0.000000,0,0
11834,0.388420,0.004900,-0.006500,-0.921447,0.000000,0.000000,0.000000,0.002000,-0.012000,-0.994000,3,22,1,22,37.5417941,127.0795459,37.683,0.790000,1.826000,0.022000,-0.006000,0.023000,0.126000,1000,1000,1000,1000,1000.000000,0,0,0,0,1,0,0,0,0,55,0.000000,0,0.000000,0.000000,0.000000,0.000000,0.000000,0.000000,0.000000,0.000000,0.000000,0.000000,0.000000,0.000000,0.000000,0.000000,0.000000,0.000000,0.000000,0.000000,0.000000,0.000000,0.000000,0.000000,0.000000,0.000000,0.000000,0.000000,0.000000,0.000000,0.000000,0.000000,0.000000,9.748541,0.000000,0.000000,0.000000,0.000000,0.000000,0.000000,0.000000,0.000000,0.000000,0.000000,0.000000,0.000000,0.000000,0.000000,0.000000,0.000000,0.000000,0.000000,0.000000,0.000000,0.000000,0.000000,0.000000,0.000000,0.000000,0.000000,0.000000,0.000000,0.000000,0.000000,0.000000,0.000000,0.000000,0,0,0,0,0,0.000000,0,0,0,1,0,0,0.000000,0.000000,0.000000,0.000000,0.000000,0.000000,0,0.994074,0.000000,0.000000,0.000000,0.000000,0.000000,0.000000,0.904523,0.228091,-0.904523,-0.228091,0.000000,0,0
11857,0.388420,0.004900,-0.006500,-0.921447,0.000000,0.000000,0.000000,0.003000,-0.018000,-1.000000,3,22,1,22,37.5417941,127.0795459,37.683,0.790000,1.826000,0.022000,-0.006000,0.023000,0.126000,1000,1000,1000,1000,1000.000000,0,0,0,0,1,0,0,0,0,79,0.000000,0,0.000000,0.000000,0.000000,0.000000,0.000000,0.000000,0.000000,0.000000,0.000000,0.000000,0.000000,0.000000,0.000000,0.000000,0.000000,0.000000,0.000000,0.000000,0.000000,0.000000,0.000000,0.000000,0.000000,0.000000,0.000000,0.000000,0.000000,0.000000,0.000000,0.000000,0.000000,9.808282,0.000000,0.000000,0.000000,0.000000,0.000000,0.000000,0.000000,0.000000,0.000000,0.000000,0.000000,0.000000,0.000000,0.000000,0.000000,0.000000,0.000000,0.000000,0.000000,0.000000,0.000000,0.000000,0.000000,0.000000,0.000000,0.000000,0.000000,0.000000,0.000000,0.000000,0.000000,0.000000,0.000000,0,0,0,0,0,0.000000,0,0,0,1,0,0,0.000000,0.000000,0.000000,0.000000,0.000000,0.000000,0,1.000166,0.000000,0.000000,0.000000,0.000000,0.000000,0.000000,0.904523,0.228091,-0.904523,-0.228091,0.000000,0,0
11918,0.388420,0.004900,-0.006500,-0.921447,0.000000,0.000000,0.000000,0.003000,-0.014000,-0.995000,3,22,1,22,37.5417941,127.0795459,37.691,0.783000,1.810000,-0.003000,-0.011000,0.010000,0.119000,1000,1000,1000,1000,1000.000000,0,0,0,0,1,0,0,0,0,140,0.000000,0,0.000000,0.000000,0.000000,0.000000,0.000000,0.000000,0.000000,0.000000,0.000000,0.000000,0.000000,0.000000,0.000000,0.000000,0.000000,0.000000,0.000000,0.000000,0.000000,0.000000,0.000000,0.000000,0.000000,0.000000,0.000000,0.000000,0.000000,0.000000,0.000000,0.000000,0.000000,9.758627,0.000000,0.000000,0.000000,0.000000,0.000000,0.000000,0.000000,0.000000,0.000000,0.000000,0.000000,0.000000,0.000000,0.000000,0.000000,0.000000,0.000000,0.000000,0.000000,0.000000,0.000000,0.000000,0.000000,0.000000,0.000000,0.000000,0.000000,0.000000,0.000000,0.000000,0.000000,0.000000,0.000000,0,0,0,0,0,0.000000,0,0,0,1,0,0,0.000000,0.000000,0.000000,0.000000,0.000000,0.000000,0,0.995103,0.000000,0.000000,0.000000,0.000000,0.000000,0.000000,0.904523,0.228091,-0.904523,-0.228091,0.000000,0,0
11942,0.388420,0.004900,-0.006500,-0.921447,0.000000,0.000000,0.000000,0.002000,-0.015000,-0.998000,3,22,1,22,37.5417941,127.0795459,37.691,0.783000,1.810000,-0.003000,-0.011000,0.010000,0.119000,1000,1000,1000,1000,1000.000000,0,0,0,0,1,0,0,0,0,164,0.000000,0,0.000000,0.000000,0.000000,0.000000,0.000000,0.000000,0.000000,0.000000,0.000000,0.000000,0.000000,0.000000,0.000000,0.000000,0.000000,0.000000,0.000000,0.000000,0.000000,0.000000,0.000000,0.000000,0.000000,0.000000,0.000000,0.000000,0.000000,0.000000,0.000000,0.000000,0.000000,9.788162,0.000000,0.000000,0.000000,0.000000,0.000000,0.000000,0.000000,0.000000,0.000000,0.000000,0.000000,0.000000,0.000000,0.000000,0.000000,0.000000,0.000000,0.000000,0.000000,0.000000,0.000000,0.000000,0.000000,0.000000,0.000000,0.000000,0.000000,0.000000,0.000000,0.000000,0.000000,0.000000,0.000000,0,0,0,0,0,0.000000,0,0,0,1,0,0,0.000000,0.000000,0.000000,0.000000,0.000000,0.000000,0,0.998115,0.000000,0.000000,0.000000,0.000000,0.000000,0.000000,0.904523,0.228091,-0.904523,-0.228091,0.000000,0,0
11986,0.388420,0.004900,-0.006500,-0.921447,0.000000,0.000000,0.000000,0.003000,-0.014000,-0.997000,3,22,1,22,37.5417941,127.0795459,37.691,0.783000,1.810000,-0.003000,-0.011000,0.010000,0.119000,1000,1000,1000,1000,1000.000000,0,0,0,0,1,0,0,0,0,208,0.000000,0,0.000000,0.000000,0.000000,0.000000,0.000000,0.000000,0.000000,0.000000,0.000000,0.000000,0.000000,0.000000,0.000000,0.000000,0.000000,0.000000,0.000000,0.000000,0.000000,0.000000,0.000000,0.000000,0.000000,0.000000,0.000000,0.000000,0.000000,0.000000,0.000000,0.000000,0.000000,9.778238,0.000000,0.000000,0.000000,0.000000,0.000000,0.000000,0.000000,0.000000,0.000000,0.000000,0.000000,0.000000,0.000000,0.000000,0.000000,0.000000,0.000000,0.000000,0.000000,0.000000,0.000000,0.000000,0.000000,0.000000,0.000000,0.000000,0.000000,0.000000,0.000000,0.000000,0.000000,0.000000,0.000000,0,0,0,0,0,0.000000,0,0,0,1,0,0,0.000000,0.000000,0.000000,0.000000,0.000000,0.000000,0,0.997103,0.000000,0.000000,0.000000,0.000000,0.000000,0.000000,0.904523,0.228091,-0.904523,-0.228091,0.000000,0,0
12034,0.388420,0.004900,-0.006500,-0.921447,0.000000,0.000000,0.000000,0.004000,-0.016000,-0.998000,3,22,1,22,37.5417942,127.0795458,37.688,0.777000,1.794000,0.009000,0.016000,0.017000,0.122000,1000,1000,1000,1000,1000.000000,0,0,0,0,1,0,0,0,0,255,0.000000,0,0.000000,0.000000,0.000000,0.000000,0.000000,0.000000,0.000000,0.000000,0.000000,0.000000,0.000000,0.000000,0.000000,0.000000,0.000000,0.000000,0.000000,0.000000,0.000000,0.000000,0.000000,0.000000,0.000000,0.000000,0.000000,0.000000,0.000000,0.000000,0.000000,0.000000,0.000000,9.788373,0.000000,0.000000,0.000000,0.000000,0.000000,0.000000,0.000000,0.000000,0.000000,0.000000,0.000000,0.000000,0.000000,0.000000,0.000000,0.000000,0.000000,0.000000,0.000000,0.000000,0.000000,0.000000,0.000000,0.000000,0.000000,0.000000,0.000000,0.000000,0.000000,0.000000,0.000000,0.000000,0.000000,0,0,0,0,0,0.000000,0,0,0,1,0,0,0.000000,0.000000,0.000000,0.000000,0.000000,0.000000,0,0.998136,0.000000,0.000000,0.000000,0.000000,0.000000,0.000000,0.904523,0.228091,-0.904523,-0.228091,0.000000,0,0
12064,0.388420,0.004900,-0.006500,-0.921447,0.000000,0.000000,0.000000,0.003000,-0.015000,-0.995000,3,22,1,22,37.5417942,127.0795458,37.688,0.777000,1.794000,0.009000,0.016000,0.017000,0.122000,1000,1000,1000,1000,1000.000000,0,0,0,0,1,0,0,0,0,286,0.000000,0,0.000000,0.000000,0.000000,0.000000,0.000000,0.000000,0.000000,0.000000,0.000000,0.000000,0.000000,0.000000,0.000000,0.000000,0.000000,0.000000,0.000000,0.000000,0.000000,0.000000,0.000000,0.000000,0.000000,0.000000,0.000000,0.000000,0.000000,0.000000,0.000000,0.000000,0.000000,9.758770,0.000000,0.000000,0.000000,0.000000,0.000000,0.000000,0.000000,0.000000,0.000000,0.000000,0.000000,0.000000,0.000000,0.000000,0.000000,0.000000,0.000000,0.000000,0.000000,0.000000,0.000000,0.000000,0.000000,0.000000,0.000000,0.000000,0.000000,0.000000,0.000000,0.000000,0.000000,0.000000,0.000000,0,0,0,0,0,0.000000,0,0,0,1,0,0,0.000000,0.000000,0.000000,0.000000,0.000000,0.000000,0,0.995118,0.000000,0.000000,0.000000,0.000000,0.000000,0.000000,0.904523,0.228091,-0.904523,-0.228091,0.000000,0,0
12108,0.388420,0.004900,-0.006500,-0.921447,0.000000,0.000000,0.000000,0.004000,-0.017000,-0.998000,3,22,1,22,37.5417942,127.0795458,37.688,0.777000,1.794000,0.009000,0.016000,0.017000,0.122000,1000,1000,1000,1000,1000.000000,0,0,0,0,1,0,0,0,0,330,0.000000,0,0.000000,0.000000,0.000000,0.000000,0.000000,0.000000,0.000000,0.000000,0.000000,0.000000,0.000000,0.000000,0.000000,0.000000,0.000000,0.000000,0.000000,0.000000,0.000000,0.000000,0.000000,0.000000,0.000000,0.000000,0.000000,0.000000,0.000000,0.000000,0.000000,0.000000,0.000000,9.788535,0.000000,0.000000,0.000000,0.000000,0.000000,0.000000,0.000000,0.000000,0.000000,0.000000,0.000000,0.000000,0.000000,0.000000,0.000000,0.000000,0.000000,0.000000,0.000000,0.000000,0.000000,0.000000,0.000000,0.000000,0.000000,0.000000,0.000000,0.000000,0.000000,0.000000,0.000000,0.000000,0.000000,0,0,0,0,0,0.000000,0,0,0,1,0,0,0.000000,0.000000,0.000000,0.000000,0.000000,0.000000,0,0.998153,0.000000,0.000000,0.000000,0.000000,0.000000,0.000000,0.904523,0.228091,-0.904523,-0.228091,0.000000,0,0
12134,0.388420,0.004900,-0.006500,-0.921447,0.000000,0.000000,0.000000,0.003000,-0.017000,-0.998000,3,22,1,22,37.5417942,127.0795458,37.688,0.777000,1.794000,0.009000,0.016000,0.017000,0.122000,1000,1000,1000,1000,1000.000000,0,0,0,0,1,0,0,0,0,355,0.000000,0,0.000000,0.000000,0.000000,0.000000,0.000000,0.000000,0.000000,0.000000,0.000000,0.000000,0.000000,0.000000,0.000000,0.000000,0.000000,0.000000,0.000000,0.000000,0.000000,0.000000,0.000000,0.000000,0.000000,0.000000,0.000000,0.000000,0.000000,0.000000,0.000000,0.000000,0.000000,9.788502,0.000000,0.000000,0.000000,0.000000,0.000000,0.000000,0.000000,0.000000,0.000000,0.000000,0.000000,0.000000,0.000000,0.000000,0.000000,0.000000,0.000000,0.000000,0.000000,0.000000,0.000000,0.000000,0.000000,0.000000,0.000000,0.000000,0.000000,0.000000,0.000000,0.000000,0.000000,0.000000,0.000000,0,0,0,0,0,0.000000,0,0,0,1,0,0,0.000000,0.000000,0.000000,0.000000,0.000000,0.000000,0,0.998149,0.000000,0.000000,0.000000,0.000000,0.000000,0.000000,0.904523,0.228091,-0.904523,-0.228091,0.000000,0,0
12195,0.388420,0.004900,-0.006500,-0.921447,0.000000,0.000000,0.000000,0.003000,-0.015000,-0.999000,3,22,1,22,37.5417943,127.0795458,37.689,0.771000,1.779000,0.019000,-0.015000,0.022000,0.126000,1000,1000,1000,1000,1000.000000,0,0,0,0,1,0,0,0,0,417,0.000000,0,0.000000,0.000000,0.000000,0.000000,0.000000,0.000000,0.000000,0.000000,0.000000,0.000000,0.000000,0.000000,0.000000,0.000000,0.000000,0.000000,0.000000,0.000000,0.000000,0.000000,0.000000,0.000000,0.000000,0.000000,0.000000,0.000000,0.000000,0.000000,0.000000,0.000000,0.000000,9.797992,0.000000,0.000000,0.000000,0.000000,0.000000,0.000000,0.000000,0.000000,0.000000,0.000000,0.000000,0.000000,0.000000,0.000000,0.000000,0.000000,0.000000,0.000000,0.000000,0.000000,0.000000,0.000000,0.000000,0.000000,0.000000,0.000000,0.000000,0.000000,0.000000,0.000000,0.000000,0.000000,0.000000,0,0,0,0,0,0.000000,0,0,0,1,0,0,0.000000,0.000000,0.000000,0.000000,0.000000,0.000000,0,0.999117,0.000000,0.000000,0.000000,0.000000,0.000000,0.000000,0.904523,0.228091,-0.904523,-0.228091,0.000000,0,0
12219,0.388420,0.004900,-0.006500,-0.921447,0.000000,0.000000,0.000000,0.003000,-0.014000,-0.999000,3,22,1,22,37.5417943,127.0795458,37.689,0.771000,1.779000,0.019000,-0.015000,0.022000,0.126000,1000,1000,1000,1000,1000.000000,0,0,0,0,1,0,0,0,0,441,0.000000,0,0.000000,0.000000,0.000000,0.000000,0.000000,0.000000,0.000000,0.000000,0.000000,0.000000,0.000000,0.000000,0.000000,0.000000,0.000000,0.000000,0.000000,0.000000,0.000000,0.000000,0.000000,0.000000,0.000000,0.000000,0.000000,0.000000,0.000000,0.000000,0.000000,0.000000,0.000000,9.797850,0.000000,0.000000,0.000000,0.000000,0.000000,0.000000,0.000000,0.000000,0.000000,0.000000,0.000000,0.000000,0.000000,0.000000,0.000000,0.000000,0.000000,0.000000,0.000000,0.000000,0.000000,0.000000,0.000000,0.000000,0.000000,0.000000,0.000000,0.000000,0.000000,0.000000,0.000000,0.000000,0.000000,0,0,0,0,0,0.000000,0,0,0,1,0,0,0.000000,0.000000,0.000000,0.000000,0.000000,0.000000,0,0.999103,0.000000,0.000000,0.000000,0.000000,0.000000,0.000000,0.904523,0.228091,-0.904523,-0.228091,0.000000,0,0
12263,0.388420,0.004900,-0.006500,-0.921447,0.000000,0.000000,0.000000,0.003000,-0.014000,-0.998000,3,22,1,22,37.5417943,127.0795458,37.689,0.771000,1.779000,0.019000,-0.015000,0.022000,0.126000,1000,1000,1000,1000,1000.000000,0,0,0,0,1,0,0,0,0,485,0.000000,0,0.000000,0.000000,0.000000,0.000000,0.000000,0.000000,0.000000,0.000000,0.000000,0.000000,0.000000,0.000000,0.000000,0.000000,0.000000,0.000000,0.000000,0.000000,0.000000,0.000000,0.000000,0.000000,0.000000,0.000000,0.000000,0.000000,0.000000,0.000000,0.000000,0.000000,0.000000,9.788044,0.000000,0.000000,0.000000,0.000000,0.000000,0.000000,0.000000,0.000000,0.000000,0.000000,0.000000,0.000000,0.000000,0.000000,0.000000,0.000000,0.000000,0.000000,0.000000,0.000000,0.000000,0.000000,0.000000,0.000000,0.000000,0.000000,0.000000,0.000000,0.000000,0.000000,0.000000,0.000000,0.000000,0,0,0,0,0,0.000000,0,0,0,1,0,0,0.000000,0.000000,0.000000,0.000000,0.000000,0.000000,0,0.998103,0.000000,0.000000,0.000000,0.000000,0.000000,0.000000,0.904523,0.228091,-0.904523,-0.228091,0.000000,0,0
12307,0.388420,0.004900,-0.006500,-0.921447,0.000000,0.000000,0.000000,0.004000,-0.016000,-0.997000,3,22,1,22,37.5417943,127.0795458,37.701,0.764000,1.763000,0.003000,0.006000,0.010000,0.124000,1000,1000,1000,1000,1000.000000,0,0,0,0,1,0,0,0,0,529,0.000000,0,0.000000,0.000000,0.000000,0.000000,0.000000,0.000000,0.000000,0.000000,0.000000,0.000000,0.000000,0.000000,0.000000,0.000000,0.000000,0.000000,0.000000,0.000000,0.000000,0.000000,0.000000,0.000000,0.000000,0.000000,0.000000,0.000000,0.000000,0.000000,0.000000,0.000000,0.000000,9.778567,0.000000,0.000000,0.000000,0.000000,0.000000,0.000000,0.000000,0.000000,0.000000,0.000000,0.000000,0.000000,0.000000,0.000000,0.000000,0.000000,0.000000,0.000000,0.000000,0.000000,0.000000,0.000000,0.000000,0.000000,0.000000,0.000000,0.000000,0.000000,0.000000,0.000000,0.000000,0.000000,0.000000,0,0,0,0,0,0.000000,0,0,0,1,0,0,0.000000,0.000000,0.000000,0.000000,0.000000,0.000000,0,0.997136,0.000000,0.000000,0.000000,0.000000,0.000000,0.000000,0.904523,0.228091,-0.904523,-0.228091,0.000000,0,0
12334,0.388420,0.004900,-0.006500,-0.921447,0.000000,0.000000,0.000000,0.003000,-0.017000,-0.998000,3,22,1,22,37.5417943,127.0795458,37.701,0.764000,1.763000,0.003000,0.006000,0.010000,0.124000,1000,1000,1000,1000,1000.000000,0,0,0,0,1,0,0,0,0,555,0.000000,0,0.000000,0.000000,0.000000,0.000000,0.000000,0.000000,0.000000,0.000000,0.000000,0.000000,0.000000,0.000000,0.000000,0.000000,0.000000,0.000000,0.000000,0.000000,0.000000,0.000000,0.000000,0.000000,0.000000,0.000000,0.000000,0.000000,0.000000,0.000000,0.000000,0.000000,0.000000,9.788502,0.000000,0.000000,0.000000,0.000000,0.000000,0.000000,0.000000,0.000000,0.000000,0.000000,0.000000,0.000000,0.000000,0.000000,0.000000,0.000000,0.000000,0.000000,0.000000,0.000000,0.000000,0.000000,0.000000,0.000000,0.000000,0.000000,0.000000,0.000000,0.000000,0.000000,0.000000,0.000000,0.000000,0,0,0,0,0,0.000000,0,0,0,1,0,0,0.000000,0.000000,0.000000,0.000000,0.000000,0.000000,0,0.998149,0.000000,0.000000,0.000000,0.000000,0.000000,0.000000,0.904523,0.228091,-0.904523,-0.228091,0.000000,0,0
12386,0.388420,0.004900,-0.006500,-0.921447,0.000000,0.000000,0.000000,0.003000,-0.014000,-0.998000,3,22,1,22,37.5417943,127.0795458,37.701,0.764000,1.763000,0.003000,0.006000,0.010000,0.124000,1000,1000,1000,1000,1000.000000,0,0,0,0,1,0,0,0,0,608,0.000000,0,0.000000,0.000000,0.000000,0.000000,0.000000,0.000000,0.000000,0.000000,0.000000,0.000000,0.000000,0.000000,0.000000,0.000000,0.000000,0.000000,0.000000,0.000000,0.000000,0.000000,0.000000,0.000000,0.000000,0.000000,0.000000,0.000000,0.000000,0.000000,0.000000,0.000000,0.000000,9.788044,0.000000,0.000000,0.000000,0.000000,0.000000,0.000000,0.000000,0.000000,0.000000,0.000000,0.000000,0.000000,0.000000,0.000000,0.000000,0.000000,0.000000,0.000000,0.000000,0.000000,0.000000,0.000000,0.000000,0.000000,0.000000,0.000000,0.000000,0.000000,0.000000,0.000000,0.000000,0.000000,0.000000,0,0,0,0,0,0.000000,0,0,0,1,0,0,0.000000,0.000000,0.000000,0.000000,0.000000,0.000000,0,0.998103,0.000000,0.000000,0.000000,0.000000,0.000000,0.000000,0.904523,0.228091,-0.904523,-0.228091,0.000000,0,0
12434,0.388420,0.004900,-0.006400,-0.921447,0.000000,0.000000,0.000000,0.003000,-0.015000,-0.998000,3,22,1,22,37.5417943,127.0795458,37.701,0.758000,1.749000,0.009000,0.008000,0.019000,0.126000,1000,1000,1000,1000,1000.000000,0,0,0,0,1,0,0,0,0,655,0.000000,0,0.000000,0.000000,0.000000,0.000000,0.000000,0.000000,0.000000,0.000000,0.000000,0.000000,0.000000,0.000000,0.000000,0.000000,0.000000,0.000000,0.000000,0.000000,0.000000,0.000000,0.000000,0.000000,0.000000,0.000000,0.000000,0.000000,0.000000,0.000000,0.000000,0.000000,0.000000,9.788187,0.000000,0.000000,0.000000,0.000000,0.000000,0.000000,0.000000,0.000000,0.000000,0.000000,0.000000,0.000000,0.000000,0.000000,0.000000,0.000000,0.000000,0.000000,0.000000,0.000000,0.000000,0.000000,0.000000,0.000000,0.000000,0.000000,0.000000,0.000000,0.000000,0.000000,0.000000,0.000000,0.000000,0,0,0,0,0,0.000000,0,0,0,1,0,0,0.000000,0.000000,0.000000,0.000000,0.000000,0.000000,0,0.998117,0.000000,0.000000,0.000000,0.000000,0.000000,0.000000,0.893963,0.232542,-0.893963,-0.232542,-0.092740,0,0
12491,0.388420,0.004900,-0.006400,-0.921447,0.000000,0.000000,0.000000,0.003000,-0.015000,-0.998000,3,22,1,22,37.5417943,127.0795458,37.701,0.758000,1.749000,0.009000,0.008000,0.019000,0.126000,1000,1000,1000,1000,1000.000000,0,0,0,0,1,0,0,0,0,713,0.000000,0,0.000000,0.000000,0.000000,0.000000,0.000000,0.000000,0.000000,0.000000,0.000000,0.000000,0.000000,0.000000,0.000000,0.000000,0.000000,0.000000,0.000000,0.000000,0.000000,0.000000,0.000000,0.000000,0.000000,0.000000,0.000000,0.000000,0.000000,0.000000,0.000000,0.000000,0.000000,9.788187,0.000000,0.000000,0.000000,0.000000,0.000000,0.000000,0.000000,0.000000,0.000000,0.000000,0.000000,0.000000,0.000000,0.000000,0.000000,0.000000,0.000000,0.000000,0.000000,0.000000,0.000000,0.000000,0.000000,0.000000,0.000000,0.000000,0.000000,0.000000,0.000000,0.000000,0.000000,0.000000,0.000000,0,0,0,0,0,0.000000,0,0,0,1,0,0,0.000000,0.000000,0.000000,0.000000,0.000000,0.000000,0,0.998117,0.000000,0.000000,0.000000,0.000000,0.000000,0.000000,0.893963,0.232542,-0.893963,-0.232542,0.000000,0,0
12515,0.388420,0.004900,-0.006400,-0.921447,0.000000,0.000000,0.000000,0.003000,-0.016000,-0.998000,3,22,1,22,37.5417943,127.0795458,37.701,0.758000,1.749000,0.009000,0.008000,0.019000,0.126000,1000,1000,1000,1000,1000.000000,0,0,0,0,1,0,0,0,0,737,0.000000,0,0.000000,0.000000,0.000000,0.000000,0.000000,0.000000,0.000000,0.000000,0.000000,0.000000,0.000000,0.000000,0.000000,0.000000,0.000000,0.000000,0.000000,0.000000,0.000000,0.000000,0.000000,0.000000,0.000000,0.000000,0.000000,0.000000,0.000000,0.000000,0.000000,0.000000,0.000000,9.788339,0.000000,0.000000,0.000000,0.000000,0.000000,0.000000,0.000000,0.000000,0.000000,0.000000,0.000000,0.000000,0.000000,0.000000,0.000000,0.000000,0.000000,0.000000,0.000000,0.000000,0.000000,0.000000,0.000000,0.000000,0.000000,0.000000,0.000000,0.000000,0.000000,0.000000,0.000000,0.000000,0.000000,0,0,0,0,0,0.000000,0,0,0,1,0,0,0.000000,0.000000,0.000000,0.000000,0.000000,0.000000,0,0.998133,0.000000,0.000000,0.000000,0.000000,0.000000,0.000000,0.893963,0.232542,-0.893963,-0.232542,0.000000,0,0
12539,0.388420,0.004900,-0.006400,-0.921447,0.000000,0.000000,0.000000,0.004000,-0.017000,-0.999000,3,22,1,22,37.5417943,127.0795457,37.717,0.753000,1.735000,0.006000,-0.022000,0.024000,0.125000,1000,1000,1000,1000,1000.000000,0,0,0,0,1,0,0,0,0,761,0.000000,0,0.000000,0.000000,0.000000,0.000000,0.000000,0.000000,0.000000,0.000000,0.000000,0.000000,0.000000,0.000000,0.000000,0.000000,0.000000,0.000000,0.000000,0.000000,0.000000,0.000000,0.000000,0.000000,0.000000,0.000000,0.000000,0.000000,0.000000,0.000000,0.000000,0.000000,0.000000,9.798341,0.000000,0.000000,0.000000,0.000000,0.000000,0.000000,0.000000,0.000000,0.000000,0.000000,0.000000,0.000000,0.000000,0.000000,0.000000,0.000000,0.000000,0.000000,0.000000,0.000000,0.000000,0.000000,0.000000,0.000000,0.000000,0.000000,0.000000,0.000000,0.000000,0.000000,0.000000,0.000000,0.000000,0,0,0,0,0,0.000000,0,0,0,1,0,0,0.000000,0.000000,0.000000,0.000000,0.000000,0.000000,0,0.999153,0.000000,0.000000,0.000000,0.000000,0.000000,0.000000,0.893963,0.232542,-0.893963,-0.232542,0.000000,0,0
12597,0.388420,0.004900,-0.006500,-0.921447,0.000000,0.000000,0.000000,0.006000,-0.014000,-0.998000,3,22,1,22,37.5417943,127.0795457,37.717,0.753000,1.735000,0.006000,-0.022000,0.024000,0.125000,1000,1000,1000,1000,1000.000000,0,0,0,0,1,0,0,0,0,819,0.000000,0,0.000000,0.000000,0.000000,0.000000,0.000000,0.000000,0.000000,0.000000,0.000000,0.000000,0.000000,0.000000,0.000000,0.000000,0.000000,0.000000,0.000000,0.000000,0.000000,0.000000,0.000000,0.000000,0.000000,0.000000,0.000000,0.000000,0.000000,0.000000,0.000000,0.000000,0.000000,9.788177,0.000000,0.000000,0.000000,0.000000,0.000000,0.000000,0.000000,0.000000,0.000000,0.000000,0.000000,0.000000,0.000000,0.000000,0.000000,0.000000,0.000000,0.000000,0.000000,0.000000,0.000000,0.000000,0.000000,0.000000,0.000000,0.000000,0.000000,0.000000,0.000000,0.000000,0.000000,0.000000,0.000000,0,0,0,0,0,0.000000,0,0,0,1,0,0,0.000000,0.000000,0.000000,0.000000,0.000000,0.000000,0,0.998116,0.000000,0.000000,0.000000,0.000000,0.000000,0.000000,0.904523,0.228091,-0.904523,-0.228091,0.076750,0,0
12621,0.388420,0.004900,-0.006500,-0.921447,0.000000,0.000000,0.000000,0.005000,-0.014000,-0.997000,3,22,1,22,37.5417943,127.0795457,37.717,0.753000,1.735000,0.006000,-0.022000,0.024000,0.125000,1000,1000,1000,1000,1000.000000,0,0,0,0,1,0,0,0,0,843,0.000000,0,0.000000,0.000000,0.000000,0.000000,0.000000,0.000000,0.000000,0.000000,0.000000,0.000000,0.000000,0.000000,0.000000,0.000000,0.000000,0.000000,0.000000,0.000000,0.000000,0.000000,0.000000,0.000000,0.000000,0.000000,0.000000,0.000000,0.000000,0.000000,0.000000,0.000000,0.000000,9.778316,0.000000,0.000000,0.000000,0.000000,0.000000,0.000000,0.000000,0.000000,0.000000,0.000000,0.000000,0.000000,0.000000,0.000000,0.000000,0.000000,0.000000,0.000000,0.000000,0.000000,0.000000,0.000000,0.000000,0.000000,0.000000,0.000000,0.000000,0.000000,0.000000,0.000000,0.000000,0.000000,0.000000,0,0,0,0,0,0.000000,0,0,0,1,0,0,0.000000,0.000000,0.000000,0.000000,0.000000,0.000000,0,0.997111,0.000000,0.000000,0.000000,0.000000,0.000000,0.000000,0.904523,0.228091,-0.904523,-0.228091,0.000000,0,0
12665,0.388420,0.004900,-0.006500,-0.921447,0.000000,0.000000,0.000000,0.006000,-0.014000,-0.998000,3,22,1,22,37.5417944,127.0795457,37.721,0.747000,1.721000,0.012000,-0.010000,0.025000,0.128000,1000,1000,1000,1000,1000.000000,0,0,0,0,1,0,0,0,0,887,0.000000,0,0.000000,0.000000,0.000000,0.000000,0.000000,0.000000,0.000000,0.000000,0.000000,0.000000,0.000000,0.000000,0.000000,0.000000,0.000000,0.000000,0.000000,0.000000,0.000000,0.000000,0.000000,0.000000,0.000000,0.000000,0.000000,0.000000,0.000000,0.000000,0.000000,0.000000,0.000000,9.788177,0.000000,0.000000,0.000000,0.000000,0.000000,0.000000,0.000000,0.000000,0.000000,0.000000,0.000000,0.000000,0.000000,0.000000,0.000000,0.000000,0.000000,0.000000,0.000000,0.000000,0.000000,0.000000,0.000000,0.000000,0.000000,0.000000,0.000000,0.000000,0.000000,0.000000,0.000000,0.000000,0.000000,0,0,0,0,0,0.000000,0,0,0,1,0,0,0.000000,0.000000,0.000000,0.000000,0.000000,0.000000,0,0.998116,0.000000,0.000000,0.000000,0.000000,0.000000,0.000000,0.904523,0.228091,-0.904523,-0.228091,0.000000,0,0
12709,0.388420,0.004900,-0.006500,-0.921447,0.000000,0.000000,0.000000,0.008000,-0.022000,-1.000000,3,22,1,22,37.5417944,127.0795457,37.721,0.747000,1.721000,0.012000,-0.010000,0.025000,0.128000,1000,1000,1000,1000,1000.000000,0,0,0,0,1,0,0,0,0,931,0.000000,0,0.000000,0.000000,0.000000,0.000000,0.000000,0.000000,0.000000,0.000000,0.000000,0.000000,0.000000,0.000000,0.000000,0.000000,0.000000,0.000000,0.000000,0.000000,0.000000,0.000000,0.000000,0.000000,0.000000,0.000000,0.000000,0.000000,0.000000,0.000000,0.000000,0.000000,0.000000,9.809337,0.000000,0.000000,0.000000,0.000000,0.000000,0.000000,0.000000,0.000000,0.000000,0.000000,0.000000,0.000000,0.000000,0.000000,0.000000,0.000000,0.000000,0.000000,0.000000,0.000000,0.000000,0.000000,0.000000,0.000000,0.000000,0.000000,0.000000,0.000000,0.000000,0.000000,0.000000,0.000000,0.000000,0,0,0,0,0,0.000000,0,0,0,1,0,0,0.000000,0.000000,0.000000,0.000000,0.000000,0.000000,0,1.000274,0.000000,0.000000,0.000000,0.000000,0.000000,0.000000,0.904523,0.228091,-0.904523,-0.228091,0.000000,0,0
12734,0.388420,0.004900,-0.006500,-0.921447,0.000000,0.000000,0.000000,0.002000,-0.013000,-0.999000,3,22,1,22,37.5417944,127.0795457,37.721,0.747000,1.721000,0.012000,-0.010000,0.025000,0.128000,1000,1000,1000,1000,1000.000000,0,0,0,0,1,0,0,0,0,955,0.000000,0,0.000000,0.000000,0.000000,0.000000,0.000000,0.000000,0.000000,0.000000,0.000000,0.000000,0.000000,0.000000,0.000000,0.000000,0.000000,0.000000,0.000000,0.000000,0.000000,0.000000,0.000000,0.000000,0.000000,0.000000,0.000000,0.000000,0.000000,0.000000,0.000000,0.000000,0.000000,9.797693,0.000000,0.000000,0.000000,0.000000,0.000000,0.000000,0.000000,0.000000,0.000000,0.000000,0.000000,0.000000,0.000000,0.000000,0.000000,0.000000,0.000000,0.000000,0.000000,0.000000,0.000000,0.000000,0.000000,0.000000,0.000000,0.000000,0.000000,0.000000,0.000000,0.000000,0.000000,0.000000,0.000000,0,0,0,0,0,0.000000,0,0,0,1,0,0,0.000000,0.000000,0.000000,0.000000,0.000000,0.000000,0,0.999087,0.000000,0.000000,0.000000,0.000000,0.000000,0.000000,0.904523,0.228091,-0.904523,-0.228091,0.000000,0,0
12784,0.388419,0.005000,-0.006500,-0.921446,0.000000,0.000000,0.000000,0.008000,-0.020000,-1.002000,3,22,1,22,37.5417944,127.0795458,37.725,0.742000,1.709000,0.014000,0.015000,0.027000,0.125000,1000,1000,1000,1000,1000.000000,0,0,0,0,1,0,0,0,0,1005,0.000000,0,0.000000,0.000000,0.000000,0.000000,0.000000,0.000000,0.000000,0.000000,0.000000,0.000000,0.000000,0.000000,0.000000,0.000000,0.000000,0.000000,0.000000,0.000000,0.000000,0.000000,0.000000,0.000000,0.000000,0.000000,0.000000,0.000000,0.000000,0.000000,0.000000,0.000000,0.000000,9.828533,0.000000,0.000000,0.000000,0.000000,0.000000,0.000000,0.000000,0.000000,0.000000,0.000000,0.000000,0.000000,0.000000,0.000000,0.000000,0.000000,0.000000,0.000000,0.000000,0.000000,0.000000,0.000000,0.000000,0.000000,0.000000,0.000000,0.000000,0.000000,0.000000,0.000000,0.000000,0.000000,0.000000,0,0,0,0,0,0.000000,0,0,0,1,0,0,0.000000,0.000000,0.000000,0.000000,0.000000,0.000000,0,1.002231,0.000000,0.000000,0.000000,0.000000,0.000000,0.000000,0.908974,0.238650,-0.908974,-0.238650,-0.211188,0,0
12827,0.388419,0.005000,-0.006500,-0.921446,0.000000,0.000000,0.000000,0.004000,-0.017000,-0.997000,3,22,1,22,37.5417944,127.0795458,37.725,0.742000,1.709000,0.014000,0.015000,0.027000,0.125000,1000,1000,1000,1000,1000.000000,0,0,0,0,1,0,0,0,0,1049,0.000000,0,0.000000,0.000000,0.000000,0.000000,0.000000,0.000000,0.000000,0.000000,0.000000,0.000000,0.000000,0.000000,0.000000,0.000000,0.000000,0.000000,0.000000,0.000000,0.000000,0.000000,0.000000,0.000000,0.000000,0.000000,0.000000,0.000000,0.000000,0.000000,0.000000,0.000000,0.000000,9.778729,0.000000,0.000000,0.000000,0.000000,0.000000,0.000000,0.000000,0.000000,0.000000,0.000000,0.000000,0.000000,0.000000,0.000000,0.000000,0.000000,0.000000,0.000000,0.000000,0.000000,0.000000,0.000000,0.000000,0.000000,0.000000,0.000000,0.000000,0.000000,0.000000,0.000000,0.000000,0.000000,0.000000,0,0,0,0,0,0.000000,0,0,0,1,0,0,0.000000,0.000000,0.000000,0.000000,0.000000,0.000000,0,0.997153,0.000000,0.000000,0.000000,0.000000,0.000000,0.000000,0.908974,0.238650,-0.908974,-0.238650,0.000000,0,0
12854,0.388419,0.005000,-0.006500,-0.921446,0.000000,0.000000,0.000000,0.001000,-0.015000,-0.998000,3,22,1,22,37.5417944,127.0795458,37.725,0.742000,1.709000,0.014000,0.015000,0.027000,0.125000,1000,1000,1000,1000,1000.000000,0,0,0,0,1,0,0,0,0,1076,0.000000,0,0.000000,0.000000,0.000000,0.000000,0.000000,0.000000,0.000000,0.000000,0.000000,0.000000,0.000000,0.000000,0.000000,0.000000,0.000000,0.000000,0.000000,0.000000,0.000000,0.000000,0.000000,0.000000,0.000000,0.000000,0.000000,0.000000,0.000000,0.000000,0.000000,0.000000,0.000000,9.788148,0.000000,0.000000,0.000000,0.000000,0.000000,0.000000,0.000000,0.000000,0.000000,0.000000,0.000000,0.000000,0.000000,0.000000,0.000000,0.000000,0.000000,0.000000,0.000000,0.000000,0.000000,0.000000,0.000000,0.000000,0.000000,0.000000,0.000000,0.000000,0.000000,0.000000,0.000000,0.000000,0.000000,0,0,0,0,0,0.000000,0,0,0,1,0,0,0.000000,0.000000,0.000000,0.000000,0.000000,0.000000,0,0.998113,0.000000,0.000000,0.000000,0.000000,0.000000,0.000000,0.908974,0.238650,-0.908974,-0.238650,0.000000,0,0
12917,0.388420,0.005000,-0.006400,-0.921447,0.000000,0.000000,0.000000,0.005000,-0.016000,-0.997000,3,22,1,22,37.5417944,127.0795458,37.731,0.737000,1.696000,-0.010000,-0.022000,0.024000,0.116000,1000,1000,1000,1000,1000.000000,0,0,0,0,1,0,0,0,0,1139,0.000000,0,0.000000,0.000000,0.000000,0.000000,0.000000,0.000000,0.000000,0.000000,0.000000,0.000000,0.000000,0.000000,0.000000,0.000000,0.000000,0.000000,0.000000,0.000000,0.000000,0.000000,0.000000,0.000000,0.000000,0.000000,0.000000,0.000000,0.000000,0.000000,0.000000,0.000000,0.000000,9.778612,0.000000,0.000000,0.000000,0.000000,0.000000,0.000000,0.000000,0.000000,0.000000,0.000000,0.000000,0.000000,0.000000,0.000000,0.000000,0.000000,0.000000,0.000000,0.000000,0.000000,0.000000,0.000000,0.000000,0.000000,0.000000,0.000000,0.000000,0.000000,0.000000,0.000000,0.000000,0.000000,0.000000,0,0,0,0,0,0.000000,0,0,0,1,0,0,0.000000,0.000000,0.000000,0.000000,0.000000,0.000000,0,0.997141,0.000000,0.000000,0.000000,0.000000,0.000000,0.000000,0.898415,0.243102,-0.898415,-0.243102,-0.070659,0,0
12941,0.388420,0.005000,-0.006400,-0.921447,0.000000,0.000000,0.000000,0.002000,-0.015000,-0.997000,3,22,1,22,37.5417944,127.0795458,37.731,0.737000,1.696000,-0.010000,-0.022000,0.024000,0.116000,1000,1000,1000,1000,1000.000000,0,0,0,0,1,0,0,0,0,1163,0.000000,0,0.000000,0.000000,0.000000,0.000000,0.000000,0.000000,0.000000,0.000000,0.000000,0.000000,0.000000,0.000000,0.000000,0.000000,0.000000,0.000000,0.000000,0.000000,0.000000,0.000000,0.000000,0.000000,0.000000,0.000000,0.000000,0.000000,0.000000,0.000000,0.000000,0.000000,0.000000,9.778357,0.000000,0.000000,0.000000,0.000000,0.000000,0.000000,0.000000,0.000000,0.000000,0.000000,0.000000,0.000000,0.000000,0.000000,0.000000,0.000000,0.000000,0.000000,0.000000,0.000000,0.000000,0.000000,0.000000,0.000000,0.000000,0.000000,0.000000,0.000000,0.000000,0.000000,0.000000,0.000000,0.000000,0,0,0,0,0,0.000000,0,0,0,1,0,0,0.000000,0.000000,0.000000,0.000000,0.000000,0.000000,0,0.997115,0.000000,0.000000,0.000000,0.000000,0.000000,0.000000,0.898415,0.243102,-0.898415,-0.243102,0.000000,0,0
12986,0.388420,0.005000,-0.006400,-0.921447,0.000000,0.000000,0.000000,0.004000,-0.015000,-0.999000,3,22,1,22,37.5417944,127.0795458,37.731,0.737000,1.696000,-0.010000,-0.022000,0.024000,0.116000,1000,1000,1000,1000,1000.000000,0,0,0,0,1,0,0,0,0,1208,0.000000,0,0.000000,0.000000,0.000000,0.000000,0.000000,0.000000,0.000000,0.000000,0.000000,0.000000,0.000000,0.000000,0.000000,0.000000,0.000000,0.000000,0.000000,0.000000,0.000000,0.000000,0.000000,0.000000,0.000000,0.000000,0.000000,0.000000,0.000000,0.000000,0.000000,0.000000,0.000000,9.798027,0.000000,0.000000,0.000000,0.000000,0.000000,0.000000,0.000000,0.000000,0.000000,0.000000,0.000000,0.000000,0.000000,0.000000,0.000000,0.000000,0.000000,0.000000,0.000000,0.000000,0.000000,0.000000,0.000000,0.000000,0.000000,0.000000,0.000000,0.000000,0.000000,0.000000,0.000000,0.000000,0.000000,0,0,0,0,0,0.000000,0,0,0,1,0,0,0.000000,0.000000,0.000000,0.000000,0.000000,0.000000,0,0.999121,0.000000,0.000000,0.000000,0.000000,0.000000,0.000000,0.898415,0.243102,-0.898415,-0.243102,0.000000,0,0
13034,0.388420,0.005000,-0.006400,-0.921447,0.000000,0.000000,0.000000,0.005000,-0.016000,-0.997000,3,22,1,22,37.5417945,127.0795458,37.757,0.732000,1.684000,0.012000,-0.007000,0.019000,0.128000,1000,1000,1000,1000,1000.000000,0,0,0,0,1,0,0,0,0,1255,0.000000,0,0.000000,0.000000,0.000000,0.000000,0.000000,0.000000,0.000000,0.000000,0.000000,0.000000,0.000000,0.000000,0.000000,0.000000,0.000000,0.000000,0.000000,0.000000,0.000000,0.000000,0.000000,0.000000,0.000000,0.000000,0.000000,0.000000,0.000000,0.000000,0.000000,0.000000,0.000000,9.778612,0.000000,0.000000,0.000000,0.000000,0.000000,0.000000,0.000000,0.000000,0.000000,0.000000,0.000000,0.000000,0.000000,0.000000,0.000000,0.000000,0.000000,0.000000,0.000000,0.000000,0.000000,0.000000,0.000000,0.000000,0.000000,0.000000,0.000000,0.000000,0.000000,0.000000,0.000000,0.000000,0.000000,0,0,0,0,0,0.000000,0,0,0,1,0,0,0.000000,0.000000,0.000000,0.000000,0.000000,0.000000,0,0.997141,0.000000,0.000000,0.000000,0.000000,0.000000,0.000000,0.898415,0.243102,-0.898415,-0.243102,0.000000,0,0
13061,0.388420,0.005000,-0.006400,-0.921447,0.000000,0.000000,0.000000,0.003000,-0.014000,-0.997000,3,22,1,22,37.5417945,127.0795458,37.757,0.732000,1.684000,0.012000,-0.007000,0.019000,0.128000,1000,1000,1000,1000,1000.000000,0,0,0,0,1,0,0,0,0,1283,0.000000,0,0.000000,0.000000,0.000000,0.000000,0.000000,0.000000,0.000000,0.000000,0.000000,0.000000,0.000000,0.000000,0.000000,0.000000,0.000000,0.000000,0.000000,0.000000,0.000000,0.000000,0.000000,0.000000,0.000000,0.000000,0.000000,0.000000,0.000000,0.000000,0.000000,0.000000,0.000000,9.778238,0.000000,0.000000,0.000000,0.000000,0.000000,0.000000,0.000000,0.000000,0.000000,0.000000,0.000000,0.000000,0.000000,0.000000,0.000000,0.000000,0.000000,0.000000,0.000000,0.000000,0.000000,0.000000,0.000000,0.000000,0.000000,0.000000,0.000000,0.000000,0.000000,0.000000,0.000000,0.000000,0.000000,0,0,0,0,0,0.000000,0,0,0,1,0,0,0.000000,0.000000,0.000000,0.000000,0.000000,0.000000,0,0.997103,0.000000,0.000000,0.000000,0.000000,0.000000,0.000000,0.898415,0.243102,-0.898415,-0.243102,0.000000,0,0
13105,0.388420,0.005000,-0.006400,-0.921447,0.000000,0.000000,0.000000,0.004000,-0.014000,-0.996000,3,22,1,22,37.5417945,127.0795458,37.757,0.732000,1.684000,0.012000,-0.007000,0.019000,0.128000,1000,1000,1000,1000,1000.000000,0,0,0,0,1,0,0,0,0,1327,0.000000,0,0.000000,0.000000,0.000000,0.000000,0.000000,0.000000,0.000000,0.000000,0.000000,0.000000,0.000000,0.000000,0.000000,0.000000,0.000000,0.000000,0.000000,0.000000,0.000000,0.000000,0.000000,0.000000,0.000000,0.000000,0.000000,0.000000,0.000000,0.000000,0.000000,0.000000,0.000000,9.768467,0.000000,0.000000,0.000000,0.000000,0.000000,0.000000,0.000000,0.000000,0.000000,0.000000,0.000000,0.000000,0.000000,0.000000,0.000000,0.000000,0.000000,0.000000,0.000000,0.000000,0.000000,0.000000,0.000000,0.000000,0.000000,0.000000,0.000000,0.000000,0.000000,0.000000,0.000000,0.000000,0.000000,0,0,0,0,0,0.000000,0,0,0,1,0,0,0.000000,0.000000,0.000000,0.000000,0.000000,0.000000,0,0.996106,0.000000,0.000000,0.000000,0.000000,0.000000,0.000000,0.898415,0.243102,-0.898415,-0.243102,0.000000,0,0
13149,0.388420,0.005000,-0.006400,-0.921447,0.000000,0.000000,0.000000,0.007000,-0.021000,-0.996000,3,22,1,22,37.5417945,127.0795458,37.757,0.732000,1.684000,0.012000,-0.007000,0.019000,0.128000,1000,1000,1000,1000,1000.000000,0,0,0,0,1,0,0,0,0,1371,0.000000,0,0.000000,0.000000,0.000000,0.000000,0.000000,0.000000,0.000000,0.000000,0.000000,0.000000,0.000000,0.000000,0.000000,0.000000,0.000000,0.000000,0.000000,0.000000,0.000000,0.000000,0.000000,0.000000,0.000000,0.000000,0.000000,0.000000,0.000000,0.000000,0.000000,0.000000,0.000000,9.769835,0.000000,0.000000,0.000000,0.000000,0.000000,0.000000,0.000000,0.000000,0.000000,0.000000,0.000000,0.000000,0.000000,0.000000,0.000000,0.000000,0.000000,0.000000,0.000000,0.000000,0.000000,0.000000,0.000000,0.000000,0.000000,0.000000,0.000000,0.000000,0.000000,0.000000,0.000000,0.000000,0.000000,0,0,0,0,0,0.000000,0,0,0,1,0,0,0.000000,0.000000,0.000000,0.000000,0.000000,0.000000,0,0.996246,0.000000,0.000000,0.000000,0.000000,0.000000,0.000000,0.898415,0.243102,-0.898415,-0.243102,0.000000,0,0
13210,0.388420,0.005000,-0.006400,-0.921447,0.000000,0.000000,0.000000,0.009000,0.000000,-0.996000,3,22,1,22,37.5417945,127.0795458,37.769,0.727000,1.673000,0.020000,0.004000,0.020000,0.126000,1000,1000,1000,1000,1000.000000,0,0,0,0,1,0,0,0,0,1432,0.000000,0,0.000000,0.000000,0.000000,0.000000,0.000000,0.000000,0.000000,0.000000,0.000000,0.000000,0.000000,0.000000,0.000000,0.000000,0.000000,0.000000,0.000000,0.000000,0.000000,0.000000,0.000000,0.000000,0.000000,0.000000,0.000000,0.000000,0.000000,0.000000,0.000000,0.000000,0.000000,9.767822,0.000000,0.000000,0.000000,0.000000,0.000000,0.000000,0.000000,0.000000,0.000000,0.000000,0.000000,0.000000,0.000000,0.000000,0.000000,0.000000,0.000000,0.000000,0.000000,0.000000,0.000000,0.000000,0.000000,0.000000,0.000000,0.000000,0.000000,0.000000,0.000000,0.000000,0.000000,0.000000,0.000000,0,0,0,0,0,0.000000,0,0,0,1,0,0,0.000000,0.000000,0.000000,0.000000,0.000000,0.000000,0,0.996041,0.000000,0.000000,0.000000,0.000000,0.000000,0.000000,0.898415,0.243102,-0.898415,-0.243102,0.000000,0,0
13234,0.388420,0.005000,-0.006400,-0.921447,-0.300000,0.100000,0.000000,0.010000,-0.004000,-1.000000,3,22,1,22,37.5417945,127.0795458,37.769,0.727000,1.673000,0.020000,0.004000,0.020000,0.126000,1000,1000,1000,1000,1000.000000,0,0,0,0,1,0,0,0,0,1456,0.000000,0,0.000000,0.000000,0.000000,0.000000,0.000000,0.000000,0.000000,0.000000,0.000000,0.000000,0.000000,0.000000,0.000000,0.000000,0.000000,0.000000,0.000000,0.000000,0.000000,0.000000,0.000000,0.000000,0.000000,0.000000,0.000000,0.000000,0.000000,0.000000,0.000000,0.000000,0.000000,9.807219,0.000000,0.000000,0.000000,0.000000,0.000000,0.000000,0.000000,0.000000,0.000000,0.000000,0.000000,0.000000,0.000000,0.000000,0.000000,0.000000,0.000000,0.000000,0.000000,0.000000,0.000000,0.000000,0.000000,0.000000,0.000000,0.000000,0.000000,0.000000,0.000000,0.000000,0.000000,0.000000,0.000000,0,0,0,0,0,0.000000,0,0,0,1,0,0,0.000000,0.000000,0.000000,0.000000,0.000000,0.000000,0,1.000058,0.000000,0.000000,0.000000,0.000000,0.000000,0.000000,0.898415,0.243102,-0.898415,-0.243102,0.000000,0,0
13261,0.388420,0.005000,-0.006400,-0.921447,0.000000,0.000000,0.000000,0.012000,-0.017000,-0.992000,3,22,1,22,37.5417945,127.0795458,37.769,0.727000,1.673000,0.020000,0.004000,0.020000,0.126000,1000,1000,1000,1000,1000.000000,0,0,0,0,1,0,0,0,0,1483,0.000000,0,0.000000,0.000000,0.000000,0.000000,0.000000,0.000000,0.000000,0.000000,0.000000,0.000000,0.000000,0.000000,0.000000,0.000000,0.000000,0.000000,0.000000,0.000000,0.000000,0.000000,0.000000,0.000000,0.000000,0.000000,0.000000,0.000000,0.000000,0.000000,0.000000,0.000000,0.000000,9.730337,0.000000,0.000000,0.000000,0.000000,0.000000,0.000000,0.000000,0.000000,0.000000,0.000000,0.000000,0.000000,0.000000,0.000000,0.000000,0.000000,0.000000,0.000000,0.000000,0.000000,0.000000,0.000000,0.000000,0.000000,0.000000,0.000000,0.000000,0.000000,0.000000,0.000000,0.000000,0.000000,0.000000,0,0,0,0,0,0.000000,0,0,0,1,0,0,0.000000,0.000000,0.000000,0.000000,0.000000,0.000000,0,0.992218,0.000000,0.000000,0.000000,0.000000,0.000000,0.000000,0.898415,0.243102,-0.898415,-0.243102,0.000000,0,0
13305,0.388420,0.005000,-0.006400,-0.921447,0.000000,0.000000,0.000000,0.018000,-0.010000,-1.003000,3,22,1,22,37.5417945,127.0795459,37.786,0.722000,1.662000,-0.004000,0.000000,0.019000,0.104000,1000,1000,1000,1000,1000.000000,0,0,0,0,1,0,0,0,0,1527,0.000000,0,0.000000,0.000000,0.000000,0.000000,0.000000,0.000000,0.000000,0.000000,0.000000,0.000000,0.000000,0.000000,0.000000,0.000000,0.000000,0.000000,0.000000,0.000000,0.000000,0.000000,0.000000,0.000000,0.000000,0.000000,0.000000,0.000000,0.000000,0.000000,0.000000,0.000000,0.000000,9.838143,0.000000,0.000000,0.000000,0.000000,0.000000,0.000000,0.000000,0.000000,0.000000,0.000000,0.000000,0.000000,0.000000,0.000000,0.000000,0.000000,0.000000,0.000000,0.000000,0.000000,0.000000,0.000000,0.000000,0.000000,0.000000,0.000000,0.000000,0.000000,0.000000,0.000000,0.000000,0.000000,0.000000,0,0,0,0,0,0.000000,0,0,0,1,0,0,0.000000,0.000000,0.000000,0.000000,0.000000,0.000000,0,1.003211,0.000000,0.000000,0.000000,0.000000,0.000000,0.000000,0.898415,0.243102,-0.898415,-0.243102,0.000000,0,0
13349,0.388420,0.005000,-0.006400,-0.921447,0.000000,0.000000,0.000000,0.007000,-0.016000,-1.010000,3,22,1,22,37.5417945,127.0795459,37.786,0.722000,1.662000,-0.004000,0.000000,0.019000,0.104000,1000,1000,1000,1000,1000.000000,0,0,0,0,1,0,0,0,0,1571,0.000000,0,0.000000,0.000000,0.000000,0.000000,0.000000,0.000000,0.000000,0.000000,0.000000,0.000000,0.000000,0.000000,0.000000,0.000000,0.000000,0.000000,0.000000,0.000000,0.000000,0.000000,0.000000,0.000000,0.000000,0.000000,0.000000,0.000000,0.000000,0.000000,0.000000,0.000000,0.000000,9.906198,0.000000,0.000000,0.000000,0.000000,0.000000,0.000000,0.000000,0.000000,0.000000,0.000000,0.000000,0.000000,0.000000,0.000000,0.000000,0.000000,0.000000,0.000000,0.000000,0.000000,0.000000,0.000000,0.000000,0.000000,0.000000,0.000000,0.000000,0.000000,0.000000,0.000000,0.000000,0.000000,0.000000,0,0,0,0,0,0.000000,0,0,0,1,0,0,0.000000,0.000000,0.000000,0.000000,0.000000,0.000000,0,1.010151,0.000000,0.000000,0.000000,0.000000,0.000000,0.000000,0.898415,0.243102,-0.898415,-0.243102,0.000000,0,0
13373,0.388420,0.005000,-0.006400,-0.921447,0.000000,0.000000,0.000000,0.008000,-0.016000,-0.997000,3,22,1,22,37.5417945,127.0795459,37.786,0.722000,1.662000,-0.004000,0.000000,0.019000,0.104000,1000,1000,1000,1000,1000.000000,0,0,0,0,1,0,0,0,0,1595,0.000000,0,0.000000,0.000000,0.000000,0.000000,0.000000,0.000000,0.000000,0.000000,0.000000,0.000000,0.000000,0.000000,0.000000,0.000000,0.000000,0.000000,0.000000,0.000000,0.000000,0.000000,0.000000,0.000000,0.000000,0.000000,0.000000,0.000000,0.000000,0.000000,0.000000,0.000000,0.000000,9.778804,0.000000,0.000000,0.000000,0.000000,0.000000,0.000000,0.000000,0.000000,0.000000,0.000000,0.000000,0.000000,0.000000,0.000000,0.000000,0.000000,0.000000,0.000000,0.000000,0.000000,0.000000,0.000000,0.000000,0.000000,0.000000,0.000000,0.000000,0.000000,0.000000,0.000000,0.000000,0.000000,0.000000,0,0,0,0,0,0.000000,0,0,0,1,0,0,0.000000,0.000000,0.000000,0.000000,0.000000,0.000000,0,0.997160,0.000000,0.000000,0.000000,0.000000,0.000000,0.000000,0.898415,0.243102,-0.898415,-0.243102,0.000000,0,0
13417,0.388420,0.005000,-0.006400,-0.921447,0.000000,0.000000,0.000000,0.005000,-0.015000,-0.998000,3,22,1,22,37.5417945,127.0795459,37.787,0.717000,1.651000,0.022000,0.005000,0.020000,0.125000,1000,1000,1000,1000,1000.000000,0,0,0,0,1,0,0,0,0,1639,0.000000,0,0.000000,0.000000,0.000000,0.000000,0.000000,0.000000,0.000000,0.000000,0.000000,0.000000,0.000000,0.000000,0.000000,0.000000,0.000000,0.000000,0.000000,0.000000,0.000000,0.000000,0.000000,0.000000,0.000000,0.000000,0.000000,0.000000,0.000000,0.000000,0.000000,0.000000,0.000000,9.788265,0.000000,0.000000,0.000000,0.000000,0.000000,0.000000,0.000000,0.000000,0.000000,0.000000,0.000000,0.000000,0.000000,0.000000,0.000000,0.000000,0.000000,0.000000,0.000000,0.000000,0.000000,0.000000,0.000000,0.000000,0.000000,0.000000,0.000000,0.000000,0.000000,0.000000,0.000000,0.000000,0.000000,0,0,0,0,0,0.000000,0,0,0,1,0,0,0.000000,0.000000,0.000000,0.000000,0.000000,0.000000,0,0.998125,0.000000,0.000000,0.000000,0.000000,0.000000,0.000000,0.898415,0.243102,-0.898415,-0.243102,0.000000,0,0
13484,0.388420,0.005000,-0.006400,-0.921447,0.000000,0.000000,0.000000,0.003000,-0.013000,-0.998000,3,22,1,22,37.5417945,127.0795459,37.787,0.717000,1.651000,0.022000,0.005000,0.020000,0.125000,1000,1000,1000,1000,1000.000000,0,0,0,0,1,0,0,0,0,1705,0.000000,0,0.000000,0.000000,0.000000,0.000000,0.000000,0.000000,0.000000,0.000000,0.000000,0.000000,0.000000,0.000000,0.000000,0.000000,0.000000,0.000000,0.000000,0.000000,0.000000,0.000000,0.000000,0.000000,0.000000,0.000000,0.000000,0.000000,0.000000,0.000000,0.000000,0.000000,0.000000,9.787911,0.000000,0.000000,0.000000,0.000000,0.000000,0.000000,0.000000,0.000000,0.000000,0.000000,0.000000,0.000000,0.000000,0.000000,0.000000,0.000000,0.000000,0.000000,0.000000,0.000000,0.000000,0.000000,0.000000,0.000000,0.000000,0.000000,0.000000,0.000000,0.000000,0.000000,0.000000,0.000000,0.000000,0,0,0,0,0,0.000000,0,0,0,1,0,0,0.000000,0.000000,0.000000,0.000000,0.000000,0.000000,0,0.998089,0.000000,0.000000,0.000000,0.000000,0.000000,0.000000,0.898415,0.243102,-0.898415,-0.243102,0.000000,0,0
13507,0.388420,0.005000,-0.006400,-0.921447,0.000000,0.000000,0.000000,0.003000,-0.014000,-1.000000,3,22,1,22,37.5417945,127.0795459,37.787,0.717000,1.651000,0.022000,0.005000,0.020000,0.125000,1000,1000,1000,1000,1000.000000,0,0,0,0,1,0,0,0,0,1729,0.000000,0,0.000000,0.000000,0.000000,0.000000,0.000000,0.000000,0.000000,0.000000,0.000000,0.000000,0.000000,0.000000,0.000000,0.000000,0.000000,0.000000,0.000000,0.000000,0.000000,0.000000,0.000000,0.000000,0.000000,0.000000,0.000000,0.000000,0.000000,0.000000,0.000000,0.000000,0.000000,9.807655,0.000000,0.000000,0.000000,0.000000,0.000000,0.000000,0.000000,0.000000,0.000000,0.000000,0.000000,0.000000,0.000000,0.000000,0.000000,0.000000,0.000000,0.000000,0.000000,0.000000,0.000000,0.000000,0.000000,0.000000,0.000000,0.000000,0.000000,0.000000,0.000000,0.000000,0.000000,0.000000,0.000000,0,0,0,0,0,0.000000,0,0,0,1,0,0,0.000000,0.000000,0.000000,0.000000,0.000000,0.000000,0,1.000103,0.000000,0.000000,0.000000,0.000000,0.000000,0.000000,0.898415,0.243102,-0.898415,-0.243102,0.000000,0,0
13534,0.388420,0.005000,-0.006400,-0.921447,0.000000,0.000000,0.000000,0.002000,-0.012000,-0.996000,3,22,1,22,37.5417945,127.0795459,37.786,0.713000,1.640000,-0.007000,-0.021000,0.027000,0.119000,1000,1000,1000,1000,1000.000000,0,0,0,0,1,0,0,0,0,1755,0.000000,0,0.000000,0.000000,0.000000,0.000000,0.000000,0.000000,0.000000,0.000000,0.000000,0.000000,0.000000,0.000000,0.000000,0.000000,0.000000,0.000000,0.000000,0.000000,0.000000,0.000000,0.000000,0.000000,0.000000,0.000000,0.000000,0.000000,0.000000,0.000000,0.000000,0.000000,0.000000,9.768152,0.000000,0.000000,0.000000,0.000000,0.000000,0.000000,0.000000,0.000000,0.000000,0.000000,0.000000,0.000000,0.000000,0.000000,0.000000,0.000000,0.000000,0.000000,0.000000,0.000000,0.000000,0.000000,0.000000,0.000000,0.000000,0.000000,0.000000,0.000000,0.000000,0.000000,0.000000,0.000000,0.000000,0,0,0,0,0,0.000000,0,0,0,1,0,0,0.000000,0.000000,0.000000,0.000000,0.000000,0.000000,0,0.996074,0.000000,0.000000,0.000000,0.000000,0.000000,0.000000,0.898415,0.243102,-0.898415,-0.243102,0.000000,0,0
13587,0.388420,0.005000,-0.006400,-0.921447,0.000000,0.000000,0.000000,0.004000,-0.017000,-0.998000,3,22,1,22,37.5417945,127.0795459,37.786,0.713000,1.640000,-0.007000,-0.021000,0.027000,0.119000,1000,1000,1000,1000,1000.000000,0,0,0,0,1,0,0,0,0,1809,0.000000,0,0.000000,0.000000,0.000000,0.000000,0.000000,0.000000,0.000000,0.000000,0.000000,0.000000,0.000000,0.000000,0.000000,0.000000,0.000000,0.000000,0.000000,0.000000,0.000000,0.000000,0.000000,0.000000,0.000000,0.000000,0.000000,0.000000,0.000000,0.000000,0.000000,0.000000,0.000000,9.788535,0.000000,0.000000,0.000000,0.000000,0.000000,0.000000,0.000000,0.000000,0.000000,0.000000,0.000000,0.000000,0.000000,0.000000,0.000000,0.000000,0.000000,0.000000,0.000000,0.000000,0.000000,0.000000,0.000000,0.000000,0.000000,0.000000,0.000000,0.000000,0.000000,0.000000,0.000000,0.000000,0.000000,0,0,0,0,0,0.000000,0,0,0,1,0,0,0.000000,0.000000,0.000000,0.000000,0.000000,0.000000,0,0.998153,0.000000,0.000000,0.000000,0.000000,0.000000,0.000000,0.898415,0.243102,-0.898415,-0.243102,0.000000,0,0
13649,0.388420,0.005000,-0.006400,-0.921447,0.000000,0.000000,0.000000,0.005000,-0.016000,-0.998000,3,22,1,22,37.5417946,127.0795460,37.800,0.708000,1.629000,0.018000,0.016000,0.021000,0.125000,1000,1000,1000,1000,1000.000000,0,0,0,0,1,0,0,0,0,1871,0.000000,0,0.000000,0.000000,0.000000,0.000000,0.000000,0.000000,0.000000,0.000000,0.000000,0.000000,0.000000,0.000000,0.000000,0.000000,0.000000,0.000000,0.000000,0.000000,0.000000,0.000000,0.000000,0.000000,0.000000,0.000000,0.000000,0.000000,0.000000,0.000000,0.000000,0.000000,0.000000,9.788418,0.000000,0.000000,0.000000,0.000000,0.000000,0.000000,0.000000,0.000000,0.000000,0.000000,0.000000,0.000000,0.000000,0.000000,0.000000,0.000000,0.000000,0.000000,0.000000,0.000000,0.000000,0.000000,0.000000,0.000000,0.000000,0.000000,0.000000,0.000000,0.000000,0.000000,0.000000,0.000000,0.000000,0,0,0,0,0,0.000000,0,0,0,1,0,0,0.000000,0.000000,0.000000,0.000000,0.000000,0.000000,0,0.998141,0.000000,0.000000,0.000000,0.000000,0.000000,0.000000,0.898415,0.243102,-0.898415,-0.243102,0.000000,0,0
13673,0.388420,0.005000,-0.006400,-0.921447,0.000000,0.000000,0.000000,0.003000,-0.017000,-0.997000,3,22,1,22,37.5417946,127.0795460,37.800,0.708000,1.629000,0.018000,0.016000,0.021000,0.125000,1000,1000,1000,1000,1000.000000,0,0,0,0,1,0,0,0,0,1895,0.000000,0,0.000000,0.000000,0.000000,0.000000,0.000000,0.000000,0.000000,0.000000,0.000000,0.000000,0.000000,0.000000,0.000000,0.000000,0.000000,0.000000,0.000000,0.000000,0.000000,0.000000,0.000000,0.000000,0.000000,0.000000,0.000000,0.000000,0.000000,0.000000,0.000000,0.000000,0.000000,9.778695,0.000000,0.000000,0.000000,0.000000,0.000000,0.000000,0.000000,0.000000,0.000000,0.000000,0.000000,0.000000,0.000000,0.000000,0.000000,0.000000,0.000000,0.000000,0.000000,0.000000,0.000000,0.000000,0.000000,0.000000,0.000000,0.000000,0.000000,0.000000,0.000000,0.000000,0.000000,0.000000,0.000000,0,0,0,0,0,0.000000,0,0,0,1,0,0,0.000000,0.000000,0.000000,0.000000,0.000000,0.000000,0,0.997149,0.000000,0.000000,0.000000,0.000000,0.000000,0.000000,0.898415,0.243102,-0.898415,-0.243102,0.000000,0,0
13697,0.388420,0.005000,-0.006400,-0.921447,0.000000,0.000000,0.000000,0.003000,-0.015000,-0.998000,3,22,1,22,37.5417946,127.0795460,37.800,0.708000,1.629000,0.018000,0.016000,0.021000,0.125000,1000,1000,1000,1000,1000.000000,0,0,0,0,1,0,0,0,0,1919,0.000000,0,0.000000,0.000000,0.000000,0.000000,0.000000,0.000000,0.000000,0.000000,0.000000,0.000000,0.000000,0.000000,0.000000,0.000000,0.000000,0.000000,0.000000,0.000000,0.000000,0.000000,0.000000,0.000000,0.000000,0.000000,0.000000,0.000000,0.000000,0.000000,0.000000,0.000000,0.000000,9.788187,0.000000,0.000000,0.000000,0.000000,0.000000,0.000000,0.000000,0.000000,0.000000,0.000000,0.000000,0.000000,0.000000,0.000000,0.000000,0.000000,0.000000,0.000000,0.000000,0.000000,0.000000,0.000000,0.000000,0.000000,0.000000,0.000000,0.000000,0.000000,0.000000,0.000000,0.000000,0.000000,0.000000,0,0,0,0,0,0.000000,0,0,0,1,0,0,0.000000,0.000000,0.000000,0.000000,0.000000,0.000000,0,0.998117,0.000000,0.000000,0.000000,0.000000,0.000000,0.000000,0.898415,0.243102,-0.898415,-0.243102,0.000000,0,0
13741,0.388420,0.005000,-0.006400,-0.921447,0.000000,0.000000,0.000000,0.003000,-0.016000,-0.998000,3,22,1,22,37.5417946,127.0795460,37.800,0.708000,1.629000,0.018000,0.016000,0.021000,0.125000,1000,1000,1000,1000,1000.000000,0,0,0,0,1,0,0,0,0,1963,0.000000,0,0.000000,0.000000,0.000000,0.000000,0.000000,0.000000,0.000000,0.000000,0.000000,0.000000,0.000000,0.000000,0.000000,0.000000,0.000000,0.000000,0.000000,0.000000,0.000000,0.000000,0.000000,0.000000,0.000000,0.000000,0.000000,0.000000,0.000000,0.000000,0.000000,0.000000,0.000000,9.788339,0.000000,0.000000,0.000000,0.000000,0.000000,0.000000,0.000000,0.000000,0.000000,0.000000,0.000000,0.000000,0.000000,0.000000,0.000000,0.000000,0.000000,0.000000,0.000000,0.000000,0.000000,0.000000,0.000000,0.000000,0.000000,0.000000,0.000000,0.000000,0.000000,0.000000,0.000000,0.000000,0.000000,0,0,0,0,0,0.000000,0,0,0,1,0,0,0.000000,0.000000,0.000000,0.000000,0.000000,0.000000,0,0.998133,0.000000,0.000000,0.000000,0.000000,0.000000,0.000000,0.898415,0.243102,-0.898415,-0.243102,0.000000,0,0
13785,0.388420,0.005000,-0.006400,-0.921447,0.000000,0.000000,0.000000,0.002000,-0.016000,-1.002000,3,22,1,22,37.5417946,127.0795460,37.800,0.704000,1.619000,-0.013000,-0.035000,0.015000,0.119000,1000,1000,1000,1000,1000.000000,0,0,0,0,1,0,0,0,0,2007,0.000000,0,0.000000,0.000000,0.000000,0.000000,0.000000,0.000000,0.000000,0.000000,0.000000,0.000000,0.000000,0.000000,0.000000,0.000000,0.000000,0.000000,0.000000,0.000000,0.000000,0.000000,0.000000,0.000000,0.000000,0.000000,0.000000,0.000000,0.000000,0.000000,0.000000,0.000000,0.000000,9.827535,0.000000,0.000000,0.000000,0.000000,0.000000,0.000000,0.000000,0.000000,0.000000,0.000000,0.000000,0.000000,0.000000,0.000000,0.000000,0.000000,0.000000,0.000000,0.000000,0.000000,0.000000,0.000000,0.000000,0.000000,0.000000,0.000000,0.000000,0.000000,0.000000,0.000000,0.000000,0.000000,0.000000,0,0,0,0,0,0.000000,0,0,0,1,0,0,0.000000,0.000000,0.000000,0.000000,0.000000,0.000000,0,1.002130,0.000000,0.000000,0.000000,0.000000,0.000000,0.000000,0.898415,0.243102,-0.898415,-0.243102,0.000000,0,0
13829,0.388420,0.005000,-0.006400,-0.921447,0.000000,0.000000,0.000000,0.004000,-0.014000,-0.997000,3,22,1,22,37.5417946,127.0795460,37.800,0.704000,1.619000,-0.013000,-0.035000,0.015000,0.119000,1000,1000,1000,1000,1000.000000,0,0,0,0,1,0,0,0,0,2051,0.000000,0,0.000000,0.000000,0.000000,0.000000,0.000000,0.000000,0.000000,0.000000,0.000000,0.000000,0.000000,0.000000,0.000000,0.000000,0.000000,0.000000,0.000000,0.000000,0.000000,0.000000,0.000000,0.000000,0.000000,0.000000,0.000000,0.000000,0.000000,0.000000,0.000000,0.000000,0.000000,9.778273,0.000000,0.000000,0.000000,0.000000,0.000000,0.000000,0.000000,0.000000,0.000000,0.000000,0.000000,0.000000,0.000000,0.000000,0.000000,0.000000,0.000000,0.000000,0.000000,0.000000,0.000000,0.000000,0.000000,0.000000,0.000000,0.000000,0.000000,0.000000,0.000000,0.000000,0.000000,0.000000,0.000000,0,0,0,0,0,0.000000,0,0,0,1,0,0,0.000000,0.000000,0.000000,0.000000,0.000000,0.000000,0,0.997106,0.000000,0.000000,0.000000,0.000000,0.000000,0.000000,0.898415,0.243102,-0.898415,-0.243102,0.000000,0,0
13859,0.388420,0.005000,-0.006400,-0.921447,0.000000,0.000000,0.000000,0.003000,-0.015000,-0.997000,3,22,1,22,37.5417946,127.0795460,37.800,0.704000,1.619000,-0.013000,-0.035000,0.015000,0.119000,1000,1000,1000,1000,1000.000000,0,0,0,0,1,0,0,0,0,2081,0.000000,0,0.000000,0.000000,0.000000,0.000000,0.000000,0.000000,0.000000,0.000000,0.000000,0.000000,0.000000,0.000000,0.000000,0.000000,0.000000,0.000000,0.000000,0.000000,0.000000,0.000000,0.000000,0.000000,0.000000,0.000000,0.000000,0.000000,0.000000,0.000000,0.000000,0.000000,0.000000,9.778381,0.000000,0.000000,0.000000,0.000000,0.000000,0.000000,0.000000,0.000000,0.000000,0.000000,0.000000,0.000000,0.000000,0.000000,0.000000,0.000000,0.000000,0.000000,0.000000,0.000000,0.000000,0.000000,0.000000,0.000000,0.000000,0.000000,0.000000,0.000000,0.000000,0.000000,0.000000,0.000000,0.000000,0,0,0,0,0,0.000000,0,0,0,1,0,0,0.000000,0.000000,0.000000,0.000000,0.000000,0.000000,0,0.997117,0.000000,0.000000,0.000000,0.000000,0.000000,0.000000,0.898415,0.243102,-0.898415,-0.243102,0.000000,0,0
13905,0.388420,0.005000,-0.006400,-0.921447,0.000000,0.000000,0.000000,0.005000,-0.015000,-1.000000,3,22,1,22,37.5417946,127.0795461,37.791,0.700000,1.609000,0.000000,0.001000,0.022000,0.107000,1000,1000,1000,1000,1000.000000,0,0,0,0,1,0,0,0,0,2127,0.000000,0,0.000000,0.000000,0.000000,0.000000,0.000000,0.000000,0.000000,0.000000,0.000000,0.000000,0.000000,0.000000,0.000000,0.000000,0.000000,0.000000,0.000000,0.000000,0.000000,0.000000,0.000000,0.000000,0.000000,0.000000,0.000000,0.000000,0.000000,0.000000,0.000000,0.000000,0.000000,9.807876,0.000000,0.000000,0.000000,0.000000,0.000000,0.000000,0.000000,0.000000,0.000000,0.000000,0.000000,0.000000,0.000000,0.000000,0.000000,0.000000,0.000000,0.000000,0.000000,0.000000,0.000000,0.000000,0.000000,0.000000,0.000000,0.000000,0.000000,0.000000,0.000000,0.000000,0.000000,0.000000,0.000000,0,0,0,0,0,0.000000,0,0,0,1,0,0,0.000000,0.000000,0.000000,0.000000,0.000000,0.000000,0,1.000125,0.000000,0.000000,0.000000,0.000000,0.000000,0.000000,0.898415,0.243102,-0.898415,-0.243102,0.000000,0,0
13970,0.388420,0.005000,-0.006400,-0.921447,0.000000,0.000000,0.000000,0.004000,-0.015000,-0.999000,3,22,1,22,37.5417946,127.0795461,37.791,0.700000,1.609000,0.000000,0.001000,0.022000,0.107000,1000,1000,1000,1000,1000.000000,0,0,0,0,1,0,0,0,0,2192,0.000000,0,0.000000,0.000000,0.000000,0.000000,0.000000,0.000000,0.000000,0.000000,0.000000,0.000000,0.000000,0.000000,0.000000,0.000000,0.000000,0.000000,0.000000,0.000000,0.000000,0.000000,0.000000,0.000000,0.000000,0.000000,0.000000,0.000000,0.000000,0.000000,0.000000,0.000000,0.000000,9.798027,0.000000,0.000000,0.000000,0.000000,0.000000,0.000000,0.000000,0.000000,0.000000,0.000000,0.000000,0.000000,0.000000,0.000000,0.000000,0.000000,0.000000,0.000000,0.000000,0.000000,0.000000,0.000000,0.000000,0.000000,0.000000,0.000000,0.000000,0.000000,0.000000,0.000000,0.000000,0.000000,0.000000,0,0,0,0,0,0.000000,0,0,0,1,0,0,0.000000,0.000000,0.000000,0.000000,0.000000,0.000000,0,0.999121,0.000000,0.000000,0.000000,0.000000,0.000000,0.000000,0.898415,0.243102,-0.898415,-0.243102,0.000000,0,0
13994,0.388420,0.005000,-0.006400,-0.921447,0.000000,0.000000,0.000000,0.004000,-0.015000,-0.998000,3,22,1,22,37.5417946,127.0795461,37.791,0.700000,1.609000,0.000000,0.001000,0.022000,0.107000,1000,1000,1000,1000,1000.000000,0,0,0,0,1,0,0,0,0,2216,0.000000,0,0.000000,0.000000,0.000000,0.000000,0.000000,0.000000,0.000000,0.000000,0.000000,0.000000,0.000000,0.000000,0.000000,0.000000,0.000000,0.000000,0.000000,0.000000,0.000000,0.000000,0.000000,0.000000,0.000000,0.000000,0.000000,0.000000,0.000000,0.000000,0.000000,0.000000,0.000000,9.788220,0.000000,0.000000,0.000000,0.000000,0.000000,0.000000,0.000000,0.000000,0.000000,0.000000,0.000000,0.000000,0.000000,0.000000,0.000000,0.000000,0.000000,0.000000,0.000000,0.000000,0.000000,0.000000,0.000000,0.000000,0.000000,0.000000,0.000000,0.000000,0.000000,0.000000,0.000000,0.000000,0.000000,0,0,0,0,0,0.000000,0,0,0,1,0,0,0.000000,0.000000,0.000000,0.000000,0.000000,0.000000,0,0.998121,0.000000,0.000000,0.000000,0.000000,0.000000,0.000000,0.898415,0.243102,-0.898415,-0.243102,0.000000,0,0
14018,0.388420,0.005000,-0.006400,-0.921447,0.000000,0.000000,0.000000,0.004000,-0.015000,-1.000000,3,22,1,22,37.5417946,127.0795461,37.791,0.700000,1.609000,0.000000,0.001000,0.022000,0.107000,1000,1000,1000,1000,1000.000000,0,0,0,0,1,0,0,0,0,2240,0.000000,0,0.000000,0.000000,0.000000,0.000000,0.000000,0.000000,0.000000,0.000000,0.000000,0.000000,0.000000,0.000000,0.000000,0.000000,0.000000,0.000000,0.000000,0.000000,0.000000,0.000000,0.000000,0.000000,0.000000,0.000000,0.000000,0.000000,0.000000,0.000000,0.000000,0.000000,0.000000,9.807832,0.000000,0.000000,0.000000,0.000000,0.000000,0.000000,0.000000,0.000000,0.000000,0.000000,0.000000,0.000000,0.000000,0.000000,0.000000,0.000000,0.000000,0.000000,0.000000,0.000000,0.000000,0.000000,0.000000,0.000000,0.000000,0.000000,0.000000,0.000000,0.000000,0.000000,0.000000,0.000000,0.000000,0,0,0,0,0,0.000000,0,0,0,1,0,0,0.000000,0.000000,0.000000,0.000000,0.000000,0.000000,0,1.000121,0.000000,0.000000,0.000000,0.000000,0.000000,0.000000,0.898415,0.243102,-0.898415,-0.243102,0.000000,0,0
14062,0.388420,0.005000,-0.006400,-0.921447,0.000000,0.000000,0.000000,0.003000,-0.014000,-0.999000,3,22,1,22,37.5417947,127.0795461,37.782,0.695000,1.598000,0.020000,0.001000,0.031000,0.129000,1000,1000,1000,1000,1000.000000,0,0,0,0,1,0,0,0,0,2284,0.000000,0,0.000000,0.000000,0.000000,0.000000,0.000000,0.000000,0.000000,0.000000,0.000000,0.000000,0.000000,0.000000,0.000000,0.000000,0.000000,0.000000,0.000000,0.000000,0.000000,0.000000,0.000000,0.000000,0.000000,0.000000,0.000000,0.000000,0.000000,0.000000,0.000000,0.000000,0.000000,9.797850,0.000000,0.000000,0.000000,0.000000,0.000000,0.000000,0.000000,0.000000,0.000000,0.000000,0.000000,0.000000,0.000000,0.000000,0.000000,0.000000,0.000000,0.000000,0.000000,0.000000,0.000000,0.000000,0.000000,0.000000,0.000000,0.000000,0.000000,0.000000,0.000000,0.000000,0.000000,0.000000,0.000000,0,0,0,0,0,0.000000,0,0,0,1,0,0,0.000000,0.000000,0.000000,0.000000,0.000000,0.000000,0,0.999103,0.000000,0.000000,0.000000,0.000000,0.000000,0.000000,0.898415,0.243102,-0.898415,-0.243102,0.000000,0,0
14106,0.388420,0.005000,-0.006400,-0.921447,0.000000,0.000000,0.000000,0.005000,-0.016000,-1.000000,3,22,1,22,37.5417947,127.0795461,37.782,0.695000,1.598000,0.020000,0.001000,0.031000,0.129000,1000,1000,1000,1000,1000.000000,0,0,0,0,1,0,0,0,0,2328,0.000000,0,0.000000,0.000000,0.000000,0.000000,0.000000,0.000000,0.000000,0.000000,0.000000,0.000000,0.000000,0.000000,0.000000,0.000000,0.000000,0.000000,0.000000,0.000000,0.000000,0.000000,0.000000,0.000000,0.000000,0.000000,0.000000,0.000000,0.000000,0.000000,0.000000,0.000000,0.000000,9.808027,0.000000,0.000000,0.000000,0.000000,0.000000,0.000000,0.000000,0.000000,0.000000,0.000000,0.000000,0.000000,0.000000,0.000000,0.000000,0.000000,0.000000,0.000000,0.000000,0.000000,0.000000,0.000000,0.000000,0.000000,0.000000,0.000000,0.000000,0.000000,0.000000,0.000000,0.000000,0.000000,0.000000,0,0,0,0,0,0.000000,0,0,0,1,0,0,0.000000,0.000000,0.000000,0.000000,0.000000,0.000000,0,1.000140,0.000000,0.000000,0.000000,0.000000,0.000000,0.000000,0.898415,0.243102,-0.898415,-0.243102,0.000000,0,0
14134,0.388420,0.005000,-0.006400,-0.921447,0.000000,0.000000,0.000000,0.005000,-0.016000,-1.000000,3,22,1,22,37.5417947,127.0795461,37.782,0.695000,1.598000,0.020000,0.001000,0.031000,0.129000,1000,1000,1000,1000,1000.000000,0,0,0,0,1,0,0,0,0,2355,0.000000,0,0.000000,0.000000,0.000000,0.000000,0.000000,0.000000,0.000000,0.000000,0.000000,0.000000,0.000000,0.000000,0.000000,0.000000,0.000000,0.000000,0.000000,0.000000,0.000000,0.000000,0.000000,0.000000,0.000000,0.000000,0.000000,0.000000,0.000000,0.000000,0.000000,0.000000,0.000000,9.808027,0.000000,0.000000,0.000000,0.000000,0.000000,0.000000,0.000000,0.000000,0.000000,0.000000,0.000000,0.000000,0.000000,0.000000,0.000000,0.000000,0.000000,0.000000,0.000000,0.000000,0.000000,0.000000,0.000000,0.000000,0.000000,0.000000,0.000000,0.000000,0.000000,0.000000,0.000000,0.000000,0.000000,0,0,0,0,0,0.000000,0,0,0,1,0,0,0.000000,0.000000,0.000000,0.000000,0.000000,0.000000,0,1.000140,0.000000,0.000000,0.000000,0.000000,0.000000,0.000000,0.898415,0.243102,-0.898415,-0.243102,0.000000,0,0
14186,0.388420,0.005000,-0.006400,-0.921447,0.000000,0.000000,0.000000,0.003000,-0.016000,-0.999000,3,22,1,22,37.5417946,127.0795461,37.785,0.691000,1.588000,-0.001000,-0.003000,0.023000,0.109000,1000,1000,1000,1000,1000.000000,0,0,0,0,1,0,0,0,0,2408,0.000000,0,0.000000,0.000000,0.000000,0.000000,0.000000,0.000000,0.000000,0.000000,0.000000,0.000000,0.000000,0.000000,0.000000,0.000000,0.000000,0.000000,0.000000,0.000000,0.000000,0.000000,0.000000,0.000000,0.000000,0.000000,0.000000,0.000000,0.000000,0.000000,0.000000,0.000000,0.000000,9.798144,0.000000,0.000000,0.000000,0.000000,0.000000,0.000000,0.000000,0.000000,0.000000,0.000000,0.000000,0.000000,0.000000,0.000000,0.000000,0.000000,0.000000,0.000000,0.000000,0.000000,0.000000,0.000000,0.000000,0.000000,0.000000,0.000000,0.000000,0.000000,0.000000,0.000000,0.000000,0.000000,0.000000,0,0,0,0,0,0.000000,0,0,0,1,0,0,0.000000,0.000000,0.000000,0.000000,0.000000,0.000000,0,0.999133,0.000000,0.000000,0.000000,0.000000,0.000000,0.000000,0.898415,0.243102,-0.898415,-0.243102,0.000000,0,0
14243,0.388420,0.005000,-0.006400,-0.921447,0.000000,0.000000,0.000000,0.004000,-0.015000,-1.000000,3,22,1,22,37.5417946,127.0795461,37.785,0.691000,1.588000,-0.001000,-0.003000,0.023000,0.109000,1000,1000,1000,1000,1000.000000,0,0,0,0,1,0,0,0,0,2465,0.000000,0,0.000000,0.000000,0.000000,0.000000,0.000000,0.000000,0.000000,0.000000,0.000000,0.000000,0.000000,0.000000,0.000000,0.000000,0.000000,0.000000,0.000000,0.000000,0.000000,0.000000,0.000000,0.000000,0.000000,0.000000,0.000000,0.000000,0.000000,0.000000,0.000000,0.000000,0.000000,9.807832,0.000000,0.000000,0.000000,0.000000,0.000000,0.000000,0.000000,0.000000,0.000000,0.000000,0.000000,0.000000,0.000000,0.000000,0.000000,0.000000,0.000000,0.000000,0.000000,0.000000,0.000000,0.000000,0.000000,0.000000,0.000000,0.000000,0.000000,0.000000,0.000000,0.000000,0.000000,0.000000,0.000000,0,0,0,0,0,0.000000,0,0,0,1,0,0,0.000000,0.000000,0.000000,0.000000,0.000000,0.000000,0,1.000121,0.000000,0.000000,0.000000,0.000000,0.000000,0.000000,0.898415,0.243102,-0.898415,-0.243102,0.000000,0,0
14267,0.388420,0.005000,-0.006400,-0.921447,0.000000,0.000000,0.000000,0.003000,-0.016000,-0.998000,3,22,1,22,37.5417946,127.0795461,37.785,0.691000,1.588000,-0.001000,-0.003000,0.023000,0.109000,1000,1000,1000,1000,1000.000000,0,0,0,0,1,0,0,0,0,2489,0.000000,0,0.000000,0.000000,0.000000,0.000000,0.000000,0.000000,0.000000,0.000000,0.000000,0.000000,0.000000,0.000000,0.000000,0.000000,0.000000,0.000000,0.000000,0.000000,0.000000,0.000000,0.000000,0.000000,0.000000,0.000000,0.000000,0.000000,0.000000,0.000000,0.000000,0.000000,0.000000,9.788339,0.000000,0.000000,0.000000,0.000000,0.000000,0.000000,0.000000,0.000000,0.000000,0.000000,0.000000,0.000000,0.000000,0.000000,0.000000,0.000000,0.000000,0.000000,0.000000,0.000000,0.000000,0.000000,0.000000,0.000000,0.000000,0.000000,0.000000,0.000000,0.000000,0.000000,0.000000,0.000000,0.000000,0,0,0,0,0,0.000000,0,0,0,1,0,0,0.000000,0.000000,0.000000,0.000000,0.000000,0.000000,0,0.998133,0.000000,0.000000,0.000000,0.000000,0.000000,0.000000,0.898415,0.243102,-0.898415,-0.243102,0.000000,0,0
14294,0.388420,0.005000,-0.006400,-0.921447,0.000000,0.000000,0.000000,0.003000,-0.015000,-0.998000,3,22,1,22,37.5417947,127.0795462,37.778,0.687000,1.578000,0.014000,0.005000,0.027000,0.129000,1000,1000,1000,1000,1000.000000,0,0,0,0,1,0,0,0,0,2516,0.000000,0,0.000000,0.000000,0.000000,0.000000,0.000000,0.000000,0.000000,0.000000,0.000000,0.000000,0.000000,0.000000,0.000000,0.000000,0.000000,0.000000,0.000000,0.000000,0.000000,0.000000,0.000000,0.000000,0.000000,0.000000,0.000000,0.000000,0.000000,0.000000,0.000000,0.000000,0.000000,9.788187,0.000000,0.000000,0.000000,0.000000,0.000000,0.000000,0.000000,0.000000,0.000000,0.000000,0.000000,0.000000,0.000000,0.000000,0.000000,0.000000,0.000000,0.000000,0.000000,0.000000,0.000000,0.000000,0.000000,0.000000,0.000000,0.000000,0.000000,0.000000,0.000000,0.000000,0.000000,0.000000,0.000000,0,0,0,0,0,0.000000,0,0,0,1,0,0,0.000000,0.000000,0.000000,0.000000,0.000000,0.000000,0,0.998117,0.000000,0.000000,0.000000,0.000000,0.000000,0.000000,0.898415,0.243102,-0.898415,-0.243102,0.000000,0,0
14339,0.388420,0.005000,-0.006400,-0.921447,0.000000,0.000000,0.000000,0.004000,-0.015000,-0.997000,3,22,1,22,37.5417947,127.0795462,37.778,0.687000,1.578000,0.014000,0.005000,0.027000,0.129000,1000,1000,1000,1000,1000.000000,0,0,0,0,1,0,0,0,0,2560,0.000000,0,0.000000,0.000000,0.000000,0.000000,0.000000,0.000000,0.000000,0.000000,0.000000,0.000000,0.000000,0.000000,0.000000,0.000000,0.000000,0.000000,0.000000,0.000000,0.000000,0.000000,0.000000,0.000000,0.000000,0.000000,0.000000,0.000000,0.000000,0.000000,0.000000,0.000000,0.000000,9.778415,0.000000,0.000000,0.000000,0.000000,0.000000,0.000000,0.000000,0.000000,0.000000,0.000000,0.000000,0.000000,0.000000,0.000000,0.000000,0.000000,0.000000,0.000000,0.000000,0.000000,0.000000,0.000000,0.000000,0.000000,0.000000,0.000000,0.000000,0.000000,0.000000,0.000000,0.000000,0.000000,0.000000,0,0,0,0,0,0.000000,0,0,0,1,0,0,0.000000,0.000000,0.000000,0.000000,0.000000,0.000000,0,0.997121,0.000000,0.000000,0.000000,0.000000,0.000000,0.000000,0.898415,0.243102,-0.898415,-0.243102,0.000000,0,0
14384,0.388420,0.005000,-0.006400,-0.921447,0.000000,0.000000,0.000000,0.004000,-0.015000,-0.997000,3,22,1,22,37.5417947,127.0795462,37.778,0.687000,1.578000,0.014000,0.005000,0.027000,0.129000,1000,1000,1000,1000,1000.000000,0,0,0,0,1,0,0,0,0,2605,0.000000,0,0.000000,0.000000,0.000000,0.000000,0.000000,0.000000,0.000000,0.000000,0.000000,0.000000,0.000000,0.000000,0.000000,0.000000,0.000000,0.000000,0.000000,0.000000,0.000000,0.000000,0.000000,0.000000,0.000000,0.000000,0.000000,0.000000,0.000000,0.000000,0.000000,0.000000,0.000000,9.778415,0.000000,0.000000,0.000000,0.000000,0.000000,0.000000,0.000000,0.000000,0.000000,0.000000,0.000000,0.000000,0.000000,0.000000,0.000000,0.000000,0.000000,0.000000,0.000000,0.000000,0.000000,0.000000,0.000000,0.000000,0.000000,0.000000,0.000000,0.000000,0.000000,0.000000,0.000000,0.000000,0.000000,0,0,0,0,0,0.000000,0,0,0,1,0,0,0.000000,0.000000,0.000000,0.000000,0.000000,0.000000,0,0.997121,0.000000,0.000000,0.000000,0.000000,0.000000,0.000000,0.898415,0.243102,-0.898415,-0.243102,0.000000,0,0
14427,0.388420,0.005000,-0.006400,-0.921447,0.000000,0.000000,0.000000,0.005000,-0.015000,-0.997000,3,22,1,22,37.5417947,127.0795461,37.755,0.682000,1.567000,-0.005000,-0.035000,0.031000,0.121000,1000,1000,1000,1000,1000.000000,0,0,0,0,1,0,0,0,0,2649,0.000000,0,0.000000,0.000000,0.000000,0.000000,0.000000,0.000000,0.000000,0.000000,0.000000,0.000000,0.000000,0.000000,0.000000,0.000000,0.000000,0.000000,0.000000,0.000000,0.000000,0.000000,0.000000,0.000000,0.000000,0.000000,0.000000,0.000000,0.000000,0.000000,0.000000,0.000000,0.000000,9.778460,0.000000,0.000000,0.000000,0.000000,0.000000,0.000000,0.000000,0.000000,0.000000,0.000000,0.000000,0.000000,0.000000,0.000000,0.000000,0.000000,0.000000,0.000000,0.000000,0.000000,0.000000,0.000000,0.000000,0.000000,0.000000,0.000000,0.000000,0.000000,0.000000,0.000000,0.000000,0.000000,0.000000,0,0,0,0,0,0.000000,0,0,0,1,0,0,0.000000,0.000000,0.000000,0.000000,0.000000,0.000000,0,0.997125,0.000000,0.000000,0.000000,0.000000,0.000000,0.000000,0.898415,0.243102,-0.898415,-0.243102,0.000000,0,0
14454,0.388420,0.005000,-0.006400,-0.921447,0.000000,0.000000,0.000000,0.004000,-0.016000,-0.998000,3,22,1,22,37.5417947,127.0795461,37.755,0.682000,1.567000,-0.005000,-0.035000,0.031000,0.121000,1000,1000,1000,1000,1000.000000,0,0,0,0,1,0,0,0,0,2676,0.000000,0,0.000000,0.000000,0.000000,0.000000,0.000000,0.000000,0.000000,0.000000,0.000000,0.000000,0.000000,0.000000,0.000000,0.000000,0.000000,0.000000,0.000000,0.000000,0.000000,0.000000,0.000000,0.000000,0.000000,0.000000,0.000000,0.000000,0.000000,0.000000,0.000000,0.000000,0.000000,9.788373,0.000000,0.000000,0.000000,0.000000,0.000000,0.000000,0.000000,0.000000,0.000000,0.000000,0.000000,0.000000,0.000000,0.000000,0.000000,0.000000,0.000000,0.000000,0.000000,0.000000,0.000000,0.000000,0.000000,0.000000,0.000000,0.000000,0.000000,0.000000,0.000000,0.000000,0.000000,0.000000,0.000000,0,0,0,0,0,0.000000,0,0,0,1,0,0,0.000000,0.000000,0.000000,0.000000,0.000000,0.000000,0,0.998136,0.000000,0.000000,0.000000,0.000000,0.000000,0.000000,0.898415,0.243102,-0.898415,-0.243102,0.000000,0,0
14516,0.388420,0.005000,-0.006400,-0.921447,0.000000,0.000000,0.000000,0.003000,-0.014000,-0.998000,3,22,1,22,37.5417947,127.0795461,37.755,0.682000,1.567000,-0.005000,-0.035000,0.031000,0.121000,1000,1000,1000,1000,1000.000000,0,0,0,0,1,0,0,0,0,2738,0.000000,0,0.000000,0.000000,0.000000,0.000000,0.000000,0.000000,0.000000,0.000000,0.000000,0.000000,0.000000,0.000000,0.000000,0.000000,0.000000,0.000000,0.000000,0.000000,0.000000,0.000000,0.000000,0.000000,0.000000,0.000000,0.000000,0.000000,0.000000,0.000000,0.000000,0.000000,0.000000,9.788044,0.000000,0.000000,0.000000,0.000000,0.000000,0.000000,0.000000,0.000000,0.000000,0.000000,0.000000,0.000000,0.000000,0.000000,0.000000,0.000000,0.000000,0.000000,0.000000,0.000000,0.000000,0.000000,0.000000,0.000000,0.000000,0.000000,0.000000,0.000000,0.000000,0.000000,0.000000,0.000000,0.000000,0,0,0,0,0,0.000000,0,0,0,1,0,0,0.000000,0.000000,0.000000,0.000000,0.000000,0.000000,0,0.998103,0.000000,0.000000,0.000000,0.000000,0.000000,0.000000,0.898415,0.243102,-0.898415,-0.243102,0.000000,0,0
14541,0.388420,0.005000,-0.006400,-0.921447,0.000000,0.000000,0.000000,0.003000,-0.015000,-0.996000,3,22,1,22,37.5417948,127.0795462,37.749,0.678000,1.557000,0.031000,0.015000,0.033000,0.126000,1000,1000,1000,1000,1000.000000,0,0,0,0,0,1,0,0,0,2762,0.000000,0,0.000000,0.000000,0.000000,0.000000,0.000000,0.000000,0.000000,0.000000,0.000000,0.000000,0.000000,0.000000,0.000000,0.000000,0.000000,0.000000,0.000000,0.000000,0.000000,0.000000,0.000000,0.000000,0.000000,0.000000,0.000000,0.000000,0.000000,0.000000,0.000000,0.000000,0.000000,9.768576,0.000000,0.000000,0.000000,-0.000007,0.000001,0.000000,0.000000,0.000000,0.000000,0.000000,0.000000,0.000000,0.000000,0.000000,0.000000,0.000000,0.000000,0.000000,0.000000,0.000000,0.000000,0.000000,0.000000,0.000000,0.000000,0.000000,0.000000,0.000000,0.000000,0.000000,0.000000,0.000000,0.000000,0,0,0,0,0,0.000000,0,0,0,1,0,0,0.000000,0.000000,0.000000,0.000000,0.000000,0.000000,0,0.996117,0.000000,0.000000,0.000000,0.000000,0.000000,0.000000,0.898415,0.243102,-0.898415,-0.243102,0.000000,0,0
14592,0.388420,0.004900,-0.006400,-0.921447,0.000000,0.000000,0.000000,0.004000,-0.015000,-0.999000,3,22,1,22,37.5417948,127.0795462,37.749,0.678000,1.557000,0.031000,0.015000,0.033000,0.126000,1000,1000,1000,1000,1000.000000,0,0,0,0,0,1,0,0,0,2814,0.000000,0,0.000000,0.000000,0.000000,0.000000,0.000000,0.000000,0.000000,0.000000,0.000000,0.000000,0.000000,0.000000,0.000000,0.000000,0.000000,0.000000,0.000000,0.000000,0.000000,0.000000,0.000000,0.000000,0.000000,0.000000,0.000000,0.000000,0.000000,0.000000,0.000000,0.000000,0.000000,9.798027,0.000000,0.000000,0.000000,-0.000007,0.000001,0.000000,0.000000,0.000000,0.000000,0.000000,0.000000,0.000000,0.000000,0.000000,0.000000,0.000000,0.000000,0.000000,0.000000,0.000000,0.000000,0.000000,0.000000,0.000000,0.000000,0.000000,0.000000,0.000000,0.000000,0.000000,0.000000,0.000000,0.000000,0,0,0,0,0,0.000000,0,0,0,1,0,0,0.000000,0.000000,0.000000,0.000000,0.000000,0.000000,0,0.999121,0.000000,0.000000,0.000000,0.000000,0.000000,0.000000,0.893963,0.232542,-0.893963,-0.232542,0.207047,0,0
14616,0.388420,0.005000,-0.006400,-0.921447,0.000000,0.000000,0.000000,0.004000,-0.015000,-0.997000,3,22,1,22,37.5417948,127.0795462,37.749,0.678000,1.557000,0.031000,0.015000,0.033000,0.126000,1000,1000,1000,1000,1000.000000,0,0,0,0,0,1,0,0,0,2838,0.000000,0,0.000000,0.000000,0.000000,0.000000,0.000000,0.000000,0.000000,0.000000,0.000000,0.000000,0.000000,0.000000,0.000000,0.000000,0.000000,0.000000,0.000000,0.000000,0.000000,0.000000,0.000000,0.000000,0.000000,0.000000,0.000000,0.000000,0.000000,0.000000,0.000000,0.000000,0.000000,9.778415,0.000000,0.000000,0.000000,-0.000007,0.000001,0.000000,0.000000,0.000000,0.000000,0.000000,0.000000,0.000000,0.000000,0.000000,0.000000,0.000000,0.000000,0.000000,0.000000,0.000000,0.000000,0.000000,0.000000,0.000000,0.000000,0.000000,0.000000,0.000000,0.000000,0.000000,0.000000,0.000000,0.000000,0,0,0,0,0,0.000000,0,0,0,1,0,0,0.000000,0.000000,0.000000,0.000000,0.000000,0.000000,0,0.997121,0.000000,0.000000,0.000000,0.000000,0.000000,0.000000,0.898415,0.243102,-0.898415,-0.243102,-0.439975,0,0
14660,0.388420,0.004900,-0.006400,-0.921447,0.000000,0.000000,0.000000,0.003000,-0.015000,-0.997000,3,22,1,22,37.5417948,127.0795463,37.758,0.674000,1.547000,0.010000,-0.002000,0.025000,0.129000,1000,1000,1000,1000,1000.000000,0,0,0,0,0,1,0,0,0,2882,0.000000,0,0.000000,0.000000,0.000000,0.000000,0.000000,0.000000,0.000000,0.000000,0.000000,0.000000,0.000000,0.000000,0.000000,0.000000,0.000000,0.000000,0.000000,0.000000,0.000000,0.000000,0.000000,0.000000,0.000000,0.000000,0.000000,0.000000,0.000000,0.000000,0.000000,0.000000,0.000000,9.778381,0.000000,0.000000,0.000000,-0.000007,0.000001,0.000000,0.000000,0.000000,0.000000,0.000000,0.000000,0.000000,0.000000,0.000000,0.000000,0.000000,0.000000,0.000000,0.000000,0.000000,0.000000,0.000000,0.000000,0.000000,0.000000,0.000000,0.000000,0.000000,0.000000,0.000000,0.000000,0.000000,0.000000,0,0,0,0,0,0.000000,0,0,0,1,0,0,0.000000,0.000000,0.000000,0.000000,0.000000,0.000000,0,0.997117,0.000000,0.000000,0.000000,0.000000,0.000000,0.000000,0.893963,0.232542,-0.893963,-0.232542,0.239986,0,0
14729,0.388420,0.004900,-0.006400,-0.921447,0.000000,0.000000,0.000000,0.005000,-0.015000,-0.998000,3,22,1,22,37.5417948,127.0795463,37.758,0.674000,1.547000,0.010000,-0.002000,0.025000,0.129000,1000,1000,1000,1000,1000.000000,0,0,0,0,0,1,0,0,0,2951,0.000000,0,0.000000,0.000000,0.000000,0.000000,0.000000,0.000000,0.000000,0.000000,0.000000,0.000000,0.000000,0.000000,0.000000,0.000000,0.000000,0.000000,0.000000,0.000000,0.000000,0.000000,0.000000,0.000000,0.000000,0.000000,0.000000,0.000000,0.000000,0.000000,0.000000,0.000000,0.000000,9.788265,0.000000,0.000000,0.000000,-0.000007,0.000001,0.000000,0.000000,0.000000,0.000000,0.000000,0.000000,0.000000,0.000000,0.000000,0.000000,0.000000,0.000000,0.000000,0.000000,0.000000,0.000000,0.000000,0.000000,0.000000,0.000000,0.000000,0.000000,0.000000,0.000000,0.000000,0.000000,0.000000,0.000000,0,0,0,0,0,0.000000,0,0,0,1,0,0,0.000000,0.000000,0.000000,0.000000,0.000000,0.000000,0,0.998125,0.000000,0.000000,0.000000,0.000000,0.000000,0.000000,0.893963,0.232542,-0.893963,-0.232542,0.000000,0,0
14763,0.388420,0.004900,-0.006400,-0.921447,0.000000,0.000000,0.000000,0.003000,-0.014000,-0.996000,3,22,1,22,37.5417948,127.0795463,37.758,0.674000,1.547000,0.010000,-0.002000,0.025000,0.129000,1000,1000,1000,1000,1000.000000,0,0,0,0,0,1,0,0,0,2985,0.000000,0,0.000000,0.000000,0.000000,0.000000,0.000000,0.000000,0.000000,0.000000,0.000000,0.000000,0.000000,0.000000,0.000000,0.000000,0.000000,0.000000,0.000000,0.000000,0.000000,0.000000,0.000000,0.000000,0.000000,0.000000,0.000000,0.000000,0.000000,0.000000,0.000000,0.000000,0.000000,9.768433,0.000000,0.000000,0.000000,-0.000007,0.000001,0.000000,0.000000,0.000000,0.000000,0.000000,0.000000,0.000000,0.000000,0.000000,0.000000,0.000000,0.000000,0.000000,0.000000,0.000000,0.000000,0.000000,0.000000,0.000000,0.000000,0.000000,0.000000,0.000000,0.000000,0.000000,0.000000,0.000000,0.000000,0,0,0,0,0,0.000000,0,0,0,1,0,0,0.000000,0.000000,0.000000,0.000000,0.000000,0.000000,0,0.996103,0.000000,0.000000,0.000000,0.000000,0.000000,0.000000,0.893963,0.232542,-0.893963,-0.232542,0.000000,0,0
14787,0.388420,0.004900,-0.006400,-0.921447,0.000000,0.000000,0.000000,0.005000,-0.017000,-0.999000,3,22,1,22,37.5417948,127.0795463,37.769,0.670000,1.538000,0.006000,0.001000,0.030000,0.128000,1000,1000,1000,1000,1000.000000,0,0,0,0,0,1,0,0,0,3009,0.000000,0,0.000000,0.000000,0.000000,0.000000,0.000000,0.000000,0.000000,0.000000,0.000000,0.000000,0.000000,0.000000,0.000000,0.000000,0.000000,0.000000,0.000000,0.000000,0.000000,0.000000,0.000000,0.000000,0.000000,0.000000,0.000000,0.000000,0.000000,0.000000,0.000000,0.000000,0.000000,9.798385,0.000000,0.000000,0.000000,-0.000007,0.000001,0.000000,0.000000,0.000000,0.000000,0.000000,0.000000,0.000000,0.000000,0.000000,0.000000,0.000000,0.000000,0.000000,0.000000,0.000000,0.000000,0.000000,0.000000,0.000000,0.000000,0.000000,0.000000,0.000000,0.000000,0.000000,0.000000,0.000000,0.000000,0,0,0,0,0,0.000000,0,0,0,1,0,0,0.000000,0.000000,0.000000,0.000000,0.000000,0.000000,0,0.999157,0.000000,0.000000,0.000000,0.000000,0.000000,0.000000,0.893963,0.232542,-0.893963,-0.232542,0.000000,0,0
14834,0.388420,0.004900,-0.006400,-0.921447,0.000000,0.000000,0.000000,0.005000,-0.014000,-0.995000,3,22,1,22,37.5417948,127.0795463,37.769,0.670000,1.538000,0.006000,0.001000,0.030000,0.128000,1000,1000,1000,1000,1000.000000,0,0,0,0,0,1,0,0,0,3055,0.000000,0,0.000000,0.000000,0.000000,0.000000,0.000000,0.000000,0.000000,0.000000,0.000000,0.000000,0.000000,0.000000,0.000000,0.000000,0.000000,0.000000,0.000000,0.000000,0.000000,0.000000,0.000000,0.000000,0.000000,0.000000,0.000000,0.000000,0.000000,0.000000,0.000000,0.000000,0.000000,9.758706,0.000000,0.000000,0.000000,-0.000007,0.000001,0.000000,0.000000,0.000000,0.000000,0.000000,0.000000,0.000000,0.000000,0.000000,0.000000,0.000000,0.000000,0.000000,0.000000,0.000000,0.000000,0.000000,0.000000,0.000000,0.000000,0.000000,0.000000,0.000000,0.000000,0.000000,0.000000,0.000000,0.000000,0,0,0,0,0,0.000000,0,0,0,1,0,0,0.000000,0.000000,0.000000,0.000000,0.000000,0.000000,0,0.995111,0.000000,0.000000,0.000000,0.000000,0.000000,0.000000,0.893963,0.232542,-0.893963,-0.232542,0.000000,0,0
14857,0.388420,0.004900,-0.006400,-0.921447,0.000000,0.000000,0.000000,0.003000,-0.014000,-0.997000,3,22,1,22,37.5417948,127.0795463,37.769,0.670000,1.538000,0.006000,0.001000,0.030000,0.128000,1000,1000,1000,1000,1000.000000,0,0,0,0,0,1,0,0,0,3079,0.000000,0,0.000000,0.000000,0.000000,0.000000,0.000000,0.000000,0.000000,0.000000,0.000000,0.000000,0.000000,0.000000,0.000000,0.000000,0.000000,0.000000,0.000000,0.000000,0.000000,0.000000,0.000000,0.000000,0.000000,0.000000,0.000000,0.000000,0.000000,0.000000,0.000000,0.000000,0.000000,9.778238,0.000000,0.000000,0.000000,-0.000007,0.000001,0.000000,0.000000,0.000000,0.000000,0.000000,0.000000,0.000000,0.000000,0.000000,0.000000,0.000000,0.000000,0.000000,0.000000,0.000000,0.000000,0.000000,0.000000,0.000000,0.000000,0.000000,0.000000,0.000000,0.000000,0.000000,0.000000,0.000000,0.000000,0,0,0,0,0,0.000000,0,0,0,1,0,0,0.000000,0.000000,0.000000,0.000000,0.000000,0.000000,0,0.997103,0.000000,0.000000,0.000000,0.000000,0.000000,0.000000,0.893963,0.232542,-0.893963,-0.232542,0.000000,0,0
14903,0.388420,0.004900,-0.006400,-0.921447,0.000000,0.000000,0.000000,0.002000,-0.016000,-0.996000,3,22,1,22,37.5417948,127.0795463,37.777,0.666000,1.529000,0.012000,-0.004000,0.027000,0.129000,1000,1000,1000,1000,1000.000000,0,0,0,0,0,1,0,0,0,3125,0.000000,0,0.000000,0.000000,0.000000,0.000000,0.000000,0.000000,0.000000,0.000000,0.000000,0.000000,0.000000,0.000000,0.000000,0.000000,0.000000,0.000000,0.000000,0.000000,0.000000,0.000000,0.000000,0.000000,0.000000,0.000000,0.000000,0.000000,0.000000,0.000000,0.000000,0.000000,0.000000,9.768703,0.000000,0.000000,0.000000,-0.000007,0.000001,0.000000,0.000000,0.000000,0.000000,0.000000,0.000000,0.000000,0.000000,0.000000,0.000000,0.000000,0.000000,0.000000,0.000000,0.000000,0.000000,0.000000,0.000000,0.000000,0.000000,0.000000,0.000000,0.000000,0.000000,0.000000,0.000000,0.000000,0.000000,0,0,0,0,0,0.000000,0,0,0,1,0,0,0.000000,0.000000,0.000000,0.000000,0.000000,0.000000,0,0.996130,0.000000,0.000000,0.000000,0.000000,0.000000,0.000000,0.893963,0.232542,-0.893963,-0.232542,0.000000,0,0
14947,0.388420,0.004900,-0.006400,-0.921447,0.000000,0.000000,0.000000,0.004000,-0.015000,-0.996000,3,22,1,22,37.5417948,127.0795463,37.777,0.666000,1.529000,0.012000,-0.004000,0.027000,0.129000,1000,1000,1000,1000,1000.000000,0,0,0,0,0,1,0,0,0,3169,0.000000,0,0.000000,0.000000,0.000000,0.000000,0.000000,0.000000,0.000000,0.000000,0.000000,0.000000,0.000000,0.000000,0.000000,0.000000,0.000000,0.000000,0.000000,0.000000,0.000000,0.000000,0.000000,0.000000,0.000000,0.000000,0.000000,0.000000,0.000000,0.000000,0.000000,0.000000,0.000000,9.768609,0.000000,0.000000,0.000000,-0.000007,0.000001,0.000000,0.000000,0.000000,0.000000,0.000000,0.000000,0.000000,0.000000,0.000000,0.000000,0.000000,0.000000,0.000000,0.000000,0.000000,0.000000,0.000000,0.000000,0.000000,0.000000,0.000000,0.000000,0.000000,0.000000,0.000000,0.000000,0.000000,0.000000,0,0,0,0,0,0.000000,0,0,0,1,0,0,0.000000,0.000000,0.000000,0.000000,0.000000,0.000000,0,0.996121,0.000000,0.000000,0.000000,0.000000,0.000000,0.000000,0.893963,0.232542,-0.893963,-0.232542,0.000000,0,0
14991,0.388420,0.004900,-0.006400,-0.921447,0.000000,0.000000,0.000000,0.004000,-0.018000,-0.996000,3,22,1,22,37.5417948,127.0795463,37.777,0.666000,1.529000,0.012000,-0.004000,0.027000,0.129000,1000,1000,1000,1000,1000.000000,0,0,0,0,0,1,0,0,0,3213,0.000000,0,0.000000,0.000000,0.000000,0.000000,0.000000,0.000000,0.000000,0.000000,0.000000,0.000000,0.000000,0.000000,0.000000,0.000000,0.000000,0.000000,0.000000,0.000000,0.000000,0.000000,0.000000,0.000000,0.000000,0.000000,0.000000,0.000000,0.000000,0.000000,0.000000,0.000000,0.000000,9.769097,0.000000,0.000000,0.000000,-0.000007,0.000001,0.000000,0.000000,0.000000,0.000000,0.000000,0.000000,0.000000,0.000000,0.000000,0.000000,0.000000,0.000000,0.000000,0.000000,0.000000,0.000000,0.000000,0.000000,0.000000,0.000000,0.000000,0.000000,0.000000,0.000000,0.000000,0.000000,0.000000,0.000000,0,0,0,0,0,0.000000,0,0,0,1,0,0,0.000000,0.000000,0.000000,0.000000,0.000000,0.000000,0,0.996171,0.000000,0.000000,0.000000,0.000000,0.000000,0.000000,0.893963,0.232542,-0.893963,-0.232542,0.000000,0,0
15048,0.388420,0.004900,-0.006500,-0.921447,0.000000,0.000000,0.000000,0.004000,-0.015000,-0.996000,3,22,1,22,37.5417949,127.0795464,37.772,0.662000,1.520000,0.005000,0.006000,0.035000,0.127000,1000,1000,1000,1000,1000.000000,0,0,0,0,0,1,0,0,0,3270,0.000000,0,0.000000,0.000000,0.000000,0.000000,0.000000,0.000000,0.000000,0.000000,0.000000,0.000000,0.000000,0.000000,0.000000,0.000000,0.000000,0.000000,0.000000,0.000000,0.000000,0.000000,0.000000,0.000000,0.000000,0.000000,0.000000,0.000000,0.000000,0.000000,0.000000,0.000000,0.000000,9.768609,0.000000,0.000000,0.000000,-0.000007,0.000001,0.000000,0.000000,0.000000,0.000000,0.000000,0.000000,0.000000,0.000000,0.000000,0.000000,0.000000,0.000000,0.000000,0.000000,0.000000,0.000000,0.000000,0.000000,0.000000,0.000000,0.000000,0.000000,0.000000,0.000000,0.000000,0.000000,0.000000,0.000000,0,0,0,0,0,0.000000,0,0,0,1,0,0,0.000000,0.000000,0.000000,0.000000,0.000000,0.000000,0,0.996121,0.000000,0.000000,0.000000,0.000000,0.000000,0.000000,0.904523,0.228091,-0.904523,-0.228091,0.078097,0,0
15072,0.388420,0.004900,-0.006500,-0.921447,0.000000,0.000000,0.000000,0.004000,-0.016000,-0.997000,3,22,1,22,37.5417949,127.0795464,37.772,0.662000,1.520000,0.005000,0.006000,0.035000,0.127000,1000,1000,1000,1000,1000.000000,0,0,0,0,0,1,0,0,0,3294,0.000000,0,0.000000,0.000000,0.000000,0.000000,0.000000,0.000000,0.000000,0.000000,0.000000,0.000000,0.000000,0.000000,0.000000,0.000000,0.000000,0.000000,0.000000,0.000000,0.000000,0.000000,0.000000,0.000000,0.000000,0.000000,0.000000,0.000000,0.000000,0.000000,0.000000,0.000000,0.000000,9.778567,0.000000,0.000000,0.000000,-0.000007,0.000001,0.000000,0.000000,0.000000,0.000000,0.000000,0.000000,0.000000,0.000000,0.000000,0.000000,0.000000,0.000000,0.000000,0.000000,0.000000,0.000000,0.000000,0.000000,0.000000,0.000000,0.000000,0.000000,0.000000,0.000000,0.000000,0.000000,0.000000,0.000000,0,0,0,0,0,0.000000,0,0,0,1,0,0,0.000000,0.000000,0.000000,0.000000,0.000000,0.000000,0,0.997136,0.000000,0.000000,0.000000,0.000000,0.000000,0.000000,0.904523,0.228091,-0.904523,-0.228091,0.000000,0,0
15096,0.388420,0.004900,-0.006500,-0.921447,0.000000,0.000000,0.000000,0.003000,-0.015000,-0.998000,3,22,1,22,37.5417949,127.0795464,37.772,0.662000,1.520000,0.005000,0.006000,0.035000,0.127000,1000,1000,1000,1000,1000.000000,0,0,0,0,0,1,0,0,0,3318,0.000000,0,0.000000,0.000000,0.000000,0.000000,0.000000,0.000000,0.000000,0.000000,0.000000,0.000000,0.000000,0.000000,0.000000,0.000000,0.000000,0.000000,0.000000,0.000000,0.000000,0.000000,0.000000,0.000000,0.000000,0.000000,0.000000,0.000000,0.000000,0.000000,0.000000,0.000000,0.000000,9.788187,0.000000,0.000000,0.000000,-0.000007,0.000001,0.000000,0.000000,0.000000,0.000000,0.000000,0.000000,0.000000,0.000000,0.000000,0.000000,0.000000,0.000000,0.000000,0.000000,0.000000,0.000000,0.000000,0.000000,0.000000,0.000000,0.000000,0.000000,0.000000,0.000000,0.000000,0.000000,0.000000,0.000000,0,0,0,0,0,0.000000,0,0,0,1,0,0,0.000000,0.000000,0.000000,0.000000,0.000000,0.000000,0,0.998117,0.000000,0.000000,0.000000,0.000000,0.000000,0.000000,0.904523,0.228091,-0.904523,-0.228091,0.000000,0,0
15140,0.388420,0.004900,-0.006500,-0.921447,0.000000,0.000000,0.000000,0.003000,-0.014000,-0.998000,3,22,1,22,37.5417949,127.0795464,37.772,0.662000,1.520000,0.005000,0.006000,0.035000,0.127000,1000,1000,1000,1000,1000.000000,0,0,0,0,0,1,0,0,0,3362,0.000000,0,0.000000,0.000000,0.000000,0.000000,0.000000,0.000000,0.000000,0.000000,0.000000,0.000000,0.000000,0.000000,0.000000,0.000000,0.000000,0.000000,0.000000,0.000000,0.000000,0.000000,0.000000,0.000000,0.000000,0.000000,0.000000,0.000000,0.000000,0.000000,0.000000,0.000000,0.000000,9.788044,0.000000,0.000000,0.000000,-0.000007,0.000001,0.000000,0.000000,0.000000,0.000000,0.000000,0.000000,0.000000,0.000000,0.000000,0.000000,0.000000,0.000000,0.000000,0.000000,0.000000,0.000000,0.000000,0.000000,0.000000,0.000000,0.000000,0.000000,0.000000,0.000000,0.000000,0.000000,0.000000,0.000000,0,0,0,0,0,0.000000,0,0,0,1,0,0,0.000000,0.000000,0.000000,0.000000,0.000000,0.000000,0,0.998103,0.000000,0.000000,0.000000,0.000000,0.000000,0.000000,0.904523,0.228091,-0.904523,-0.228091,0.000000,0,0
15184,0.388420,0.004900,-0.006500,-0.921447,0.000000,0.000000,0.000000,0.005000,-0.016000,-0.998000,3,22,1,22,37.5417949,127.0795464,37.786,0.659000,1.511000,0.016000,0.005000,0.022000,0.128000,1000,1000,1000,1000,1000.000000,0,0,0,0,0,1,0,0,0,3406,0.000000,0,0.000000,0.000000,0.000000,0.000000,0.000000,0.000000,0.000000,0.000000,0.000000,0.000000,0.000000,0.000000,0.000000,0.000000,0.000000,0.000000,0.000000,0.000000,0.000000,0.000000,0.000000,0.000000,0.000000,0.000000,0.000000,0.000000,0.000000,0.000000,0.000000,0.000000,0.000000,9.788418,0.000000,0.000000,0.000000,-0.000007,0.000001,0.000000,0.000000,0.000000,0.000000,0.000000,0.000000,0.000000,0.000000,0.000000,0.000000,0.000000,0.000000,0.000000,0.000000,0.000000,0.000000,0.000000,0.000000,0.000000,0.000000,0.000000,0.000000,0.000000,0.000000,0.000000,0.000000,0.000000,0.000000,0,0,0,0,0,0.000000,0,0,0,1,0,0,0.000000,0.000000,0.000000,0.000000,0.000000,0.000000,0,0.998141,0.000000,0.000000,0.000000,0.000000,0.000000,0.000000,0.904523,0.228091,-0.904523,-0.228091,0.000000,0,0
15228,0.388420,0.004900,-0.006500,-0.921447,0.000000,0.000000,0.000000,0.003000,-0.016000,-0.996000,3,22,1,22,37.5417949,127.0795464,37.786,0.659000,1.511000,0.016000,0.005000,0.022000,0.128000,1000,1000,1000,1000,1000.000000,0,0,0,0,0,1,0,0,0,3450,0.000000,0,0.000000,0.000000,0.000000,0.000000,0.000000,0.000000,0.000000,0.000000,0.000000,0.000000,0.000000,0.000000,0.000000,0.000000,0.000000,0.000000,0.000000,0.000000,0.000000,0.000000,0.000000,0.000000,0.000000,0.000000,0.000000,0.000000,0.000000,0.000000,0.000000,0.000000,0.000000,9.768728,0.000000,0.000000,0.000000,-0.000007,0.000001,0.000000,0.000000,0.000000,0.000000,0.000000,0.000000,0.000000,0.000000,0.000000,0.000000,0.000000,0.000000,0.000000,0.000000,0.000000,0.000000,0.000000,0.000000,0.000000,0.000000,0.000000,0.000000,0.000000,0.000000,0.000000,0.000000,0.000000,0.000000,0,0,0,0,0,0.000000,0,0,0,1,0,0,0.000000,0.000000,0.000000,0.000000,0.000000,0.000000,0,0.996133,0.000000,0.000000,0.000000,0.000000,0.000000,0.000000,0.904523,0.228091,-0.904523,-0.228091,0.000000,0,0
15256,0.388419,0.005000,-0.006500,-0.921446,0.000000,0.000000,0.000000,0.003000,-0.014000,-0.998000,3,22,1,22,37.5417949,127.0795464,37.786,0.659000,1.511000,0.016000,0.005000,0.022000,0.128000,1000,1000,1000,1000,1000.000000,0,0,0,0,0,1,0,0,0,3478,0.000000,0,0.000000,0.000000,0.000000,0.000000,0.000000,0.000000,0.000000,0.000000,0.000000,0.000000,0.000000,0.000000,0.000000,0.000000,0.000000,0.000000,0.000000,0.000000,0.000000,0.000000,0.000000,0.000000,0.000000,0.000000,0.000000,0.000000,0.000000,0.000000,0.000000,0.000000,0.000000,9.788044,0.000000,0.000000,0.000000,-0.000007,0.000001,0.000000,0.000000,0.000000,0.000000,0.000000,0.000000,0.000000,0.000000,0.000000,0.000000,0.000000,0.000000,0.000000,0.000000,0.000000,0.000000,0.000000,0.000000,0.000000,0.000000,0.000000,0.000000,0.000000,0.000000,0.000000,0.000000,0.000000,0.000000,0,0,0,0,0,0.000000,0,0,0,1,0,0,0.000000,0.000000,0.000000,0.000000,0.000000,0.000000,0,0.998103,0.000000,0.000000,0.000000,0.000000,0.000000,0.000000,0.908974,0.238650,-0.908974,-0.238650,-0.377121,0,0
15321,0.388420,0.004900,-0.006500,-0.921447,0.000000,0.000000,0.000000,0.001000,-0.013000,-0.997000,3,22,1,22,37.5417949,127.0795464,37.790,0.655000,1.503000,0.003000,-0.010000,0.023000,0.125000,1000,1000,1000,1000,1000.000000,0,0,0,0,0,1,0,0,0,3543,0.000000,0,0.000000,0.000000,0.000000,0.000000,0.000000,0.000000,0.000000,0.000000,0.000000,0.000000,0.000000,0.000000,0.000000,0.000000,0.000000,0.000000,0.000000,0.000000,0.000000,0.000000,0.000000,0.000000,0.000000,0.000000,0.000000,0.000000,0.000000,0.000000,0.000000,0.000000,0.000000,9.778066,0.000000,0.000000,0.000000,-0.000007,0.000001,0.000000,0.000000,0.000000,0.000000,0.000000,0.000000,0.000000,0.000000,0.000000,0.000000,0.000000,0.000000,0.000000,0.000000,0.000000,0.000000,0.000000,0.000000,0.000000,0.000000,0.000000,0.000000,0.000000,0.000000,0.000000,0.000000,0.000000,0.000000,0,0,0,0,0,0.000000,0,0,0,1,0,0,0.000000,0.000000,0.000000,0.000000,0.000000,0.000000,0,0.997085,0.000000,0.000000,0.000000,0.000000,0.000000,0.000000,0.904523,0.228091,-0.904523,-0.228091,0.162452,0,0
15345,0.388420,0.004900,-0.006500,-0.921447,0.000000,0.000000,0.000000,0.003000,-0.016000,-0.996000,3,22,1,22,37.5417949,127.0795464,37.790,0.655000,1.503000,0.003000,-0.010000,0.023000,0.125000,1000,1000,1000,1000,1000.000000,0,0,0,0,0,1,0,0,0,3567,0.000000,0,0.000000,0.000000,0.000000,0.000000,0.000000,0.000000,0.000000,0.000000,0.000000,0.000000,0.000000,0.000000,0.000000,0.000000,0.000000,0.000000,0.000000,0.000000,0.000000,0.000000,0.000000,0.000000,0.000000,0.000000,0.000000,0.000000,0.000000,0.000000,0.000000,0.000000,0.000000,9.768728,0.000000,0.000000,0.000000,-0.000007,0.000001,0.000000,0.000000,0.000000,0.000000,0.000000,0.000000,0.000000,0.000000,0.000000,0.000000,0.000000,0.000000,0.000000,0.000000,0.000000,0.000000,0.000000,0.000000,0.000000,0.000000,0.000000,0.000000,0.000000,0.000000,0.000000,0.000000,0.000000,0.000000,0,0,0,0,0,0.000000,0,0,0,1,0,0,0.000000,0.000000,0.000000,0.000000,0.000000,0.000000,0,0.996133,0.000000,0.000000,0.000000,0.000000,0.000000,0.000000,0.904523,0.228091,-0.904523,-0.228091,0.000000,0,0
15389,0.388420,0.004900,-0.006500,-0.921447,0.000000,0.000000,0.000000,0.004000,-0.016000,-0.998000,3,22,1,22,37.5417949,127.0795464,37.790,0.655000,1.503000,0.003000,-0.010000,0.023000,0.125000,1000,1000,1000,1000,1000.000000,0,0,0,0,0,1,0,0,0,3611,0.000000,0,0.000000,0.000000,0.000000,0.000000,0.000000,0.000000,0.000000,0.000000,0.000000,0.000000,0.000000,0.000000,0.000000,0.000000,0.000000,0.000000,0.000000,0.000000,0.000000,0.000000,0.000000,0.000000,0.000000,0.000000,0.000000,0.000000,0.000000,0.000000,0.000000,0.000000,0.000000,9.788373,0.000000,0.000000,0.000000,-0.000007,0.000001,0.000000,0.000000,0.000000,0.000000,0.000000,0.000000,0.000000,0.000000,0.000000,0.000000,0.000000,0.000000,0.000000,0.000000,0.000000,0.000000,0.000000,0.000000,0.000000,0.000000,0.000000,0.000000,0.000000,0.000000,0.000000,0.000000,0.000000,0.000000,0,0,0,0,0,0.000000,0,0,0,1,0,0,0.000000,0.000000,0.000000,0.000000,0.000000,0.000000,0,0.998136,0.000000,0.000000,0.000000,0.000000,0.000000,0.000000,0.904523,0.228091,-0.904523,-0.228091,0.000000,0,0
15413,0.388420,0.004900,-0.006500,-0.921447,0.000000,0.000000,0.000000,0.004000,-0.015000,-1.000000,3,22,1,22,37.5417948,127.0795465,37.802,0.652000,1.494000,0.007000,-0.007000,0.024000,0.128000,1000,1000,1000,1000,1000.000000,0,0,0,0,0,1,0,0,0,3635,0.000000,0,0.000000,0.000000,0.000000,0.000000,0.000000,0.000000,0.000000,0.000000,0.000000,0.000000,0.000000,0.000000,0.000000,0.000000,0.000000,0.000000,0.000000,0.000000,0.000000,0.000000,0.000000,0.000000,0.000000,0.000000,0.000000,0.000000,0.000000,0.000000,0.000000,0.000000,0.000000,9.807832,0.000000,0.000000,0.000000,-0.000007,0.000001,0.000000,0.000000,0.000000,0.000000,0.000000,0.000000,0.000000,0.000000,0.000000,0.000000,0.000000,0.000000,0.000000,0.000000,0.000000,0.000000,0.000000,0.000000,0.000000,0.000000,0.000000,0.000000,0.000000,0.000000,0.000000,0.000000,0.000000,0.000000,0,0,0,0,0,0.000000,0,0,0,1,0,0,0.000000,0.000000,0.000000,0.000000,0.000000,0.000000,0,1.000121,0.000000,0.000000,0.000000,0.000000,0.000000,0.000000,0.904523,0.228091,-0.904523,-0.228091,0.000000,0,0
15457,0.388419,0.005000,-0.006500,-0.921446,0.000000,0.000000,0.000000,0.005000,-0.015000,-1.000000,3,22,1,22,37.5417948,127.0795465,37.802,0.652000,1.494000,0.007000,-0.007000,0.024000,0.128000,1000,1000,1000,1000,1000.000000,0,0,0,0,0,1,0,0,0,3679,0.000000,0,0.000000,0.000000,0.000000,0.000000,0.000000,0.000000,0.000000,0.000000,0.000000,0.000000,0.000000,0.000000,0.000000,0.000000,0.000000,0.000000,0.000000,0.000000,0.000000,0.000000,0.000000,0.000000,0.000000,0.000000,0.000000,0.000000,0.000000,0.000000,0.000000,0.000000,0.000000,9.807876,0.000000,0.000000,0.000000,-0.000007,0.000001,0.000000,0.000000,0.000000,0.000000,0.000000,0.000000,0.000000,0.000000,0.000000,0.000000,0.000000,0.000000,0.000000,0.000000,0.000000,0.000000,0.000000,0.000000,0.000000,0.000000,0.000000,0.000000,0.000000,0.000000,0.000000,0.000000,0.000000,0.000000,0,0,0,0,0,0.000000,0,0,0,1,0,0,0.000000,0.000000,0.000000,0.000000,0.000000,0.000000,0,1.000125,0.000000,0.000000,0.000000,0.000000,0.000000,0.000000,0.908974,0.238650,-0.908974,-0.238650,-0.239986,0,0
15503,0.388420,0.004900,-0.006500,-0.921447,0.000000,0.000000,0.000000,0.004000,-0.014000,-0.997000,3,22,1,22,37.5417948,127.0795465,37.802,0.652000,1.494000,0.007000,-0.007000,0.024000,0.128000,1000,1000,1000,1000,1000.000000,0,0,0,0,0,1,0,0,0,3725,0.000000,0,0.000000,0.000000,0.000000,0.000000,0.000000,0.000000,0.000000,0.000000,0.000000,0.000000,0.000000,0.000000,0.000000,0.000000,0.000000,0.000000,0.000000,0.000000,0.000000,0.000000,0.000000,0.000000,0.000000,0.000000,0.000000,0.000000,0.000000,0.000000,0.000000,0.000000,0.000000,9.778273,0.000000,0.000000,0.000000,-0.000007,0.000001,0.000000,0.000000,0.000000,0.000000,0.000000,0.000000,0.000000,0.000000,0.000000,0.000000,0.000000,0.000000,0.000000,0.000000,0.000000,0.000000,0.000000,0.000000,0.000000,0.000000,0.000000,0.000000,0.000000,0.000000,0.000000,0.000000,0.000000,0.000000,0,0,0,0,0,0.000000,0,0,0,1,0,0,0.000000,0.000000,0.000000,0.000000,0.000000,0.000000,0,0.997106,0.000000,0.000000,0.000000,0.000000,0.000000,0.000000,0.904523,0.228091,-0.904523,-0.228091,0.229552,0,0
15547,0.388420,0.004900,-0.006500,-0.921447,0.000000,0.000000,0.000000,0.004000,-0.016000,-0.996000,3,22,1,22,37.5417949,127.0795465,37.797,0.648000,1.485000,0.008000,0.004000,0.023000,0.127000,1000,1000,1000,1000,1000.000000,0,0,0,0,0,1,0,0,0,3769,0.000000,0,0.000000,0.000000,0.000000,0.000000,0.000000,0.000000,0.000000,0.000000,0.000000,0.000000,0.000000,0.000000,0.000000,0.000000,0.000000,0.000000,0.000000,0.000000,0.000000,0.000000,0.000000,0.000000,0.000000,0.000000,0.000000,0.000000,0.000000,0.000000,0.000000,0.000000,0.000000,9.768762,0.000000,0.000000,0.000000,-0.000007,0.000001,0.000000,0.000000,0.000000,0.000000,0.000000,0.000000,0.000000,0.000000,0.000000,0.000000,0.000000,0.000000,0.000000,0.000000,0.000000,0.000000,0.000000,0.000000,0.000000,0.000000,0.000000,0.000000,0.000000,0.000000,0.000000,0.000000,0.000000,0.000000,0,0,0,0,0,0.000000,0,0,0,1,0,0,0.000000,0.000000,0.000000,0.000000,0.000000,0.000000,0,0.996136,0.000000,0.000000,0.000000,0.000000,0.000000,0.000000,0.904523,0.228091,-0.904523,-0.228091,0.000000,0,0
15605,0.388420,0.004900,-0.006500,-0.921447,0.000000,0.000000,0.000000,0.004000,-0.016000,-0.999000,3,22,1,22,37.5417949,127.0795465,37.797,0.648000,1.485000,0.008000,0.004000,0.023000,0.127000,1000,1000,1000,1000,1000.000000,0,0,0,0,0,1,0,0,0,3827,0.000000,0,0.000000,0.000000,0.000000,0.000000,0.000000,0.000000,0.000000,0.000000,0.000000,0.000000,0.000000,0.000000,0.000000,0.000000,0.000000,0.000000,0.000000,0.000000,0.000000,0.000000,0.000000,0.000000,0.000000,0.000000,0.000000,0.000000,0.000000,0.000000,0.000000,0.000000,0.000000,9.798179,0.000000,0.000000,0.000000,-0.000007,0.000001,0.000000,0.000000,0.000000,0.000000,0.000000,0.000000,0.000000,0.000000,0.000000,0.000000,0.000000,0.000000,0.000000,0.000000,0.000000,0.000000,0.000000,0.000000,0.000000,0.000000,0.000000,0.000000,0.000000,0.000000,0.000000,0.000000,0.000000,0.000000,0,0,0,0,0,0.000000,0,0,0,1,0,0,0.000000,0.000000,0.000000,0.000000,0.000000,0.000000,0,0.999136,0.000000,0.000000,0.000000,0.000000,0.000000,0.000000,0.904523,0.228091,-0.904523,-0.228091,0.000000,0,0
15629,0.388420,0.004900,-0.006400,-0.921447,0.000000,0.000000,0.000000,0.005000,-0.015000,-0.998000,3,22,1,22,37.5417949,127.0795465,37.797,0.648000,1.485000,0.008000,0.004000,0.023000,0.127000,1000,1000,1000,1000,1000.000000,0,0,0,0,0,1,0,0,0,3851,0.000000,0,0.000000,0.000000,0.000000,0.000000,0.000000,0.000000,0.000000,0.000000,0.000000,0.000000,0.000000,0.000000,0.000000,0.000000,0.000000,0.000000,0.000000,0.000000,0.000000,0.000000,0.000000,0.000000,0.000000,0.000000,0.000000,0.000000,0.000000,0.000000,0.000000,0.000000,0.000000,9.788265,0.000000,0.000000,0.000000,-0.000007,0.000001,0.000000,0.000000,0.000000,0.000000,0.000000,0.000000,0.000000,0.000000,0.000000,0.000000,0.000000,0.000000,0.000000,0.000000,0.000000,0.000000,0.000000,0.000000,0.000000,0.000000,0.000000,0.000000,0.000000,0.000000,0.000000,0.000000,0.000000,0.000000,0,0,0,0,0,0.000000,0,0,0,1,0,0,0.000000,0.000000,0.000000,0.000000,0.000000,0.000000,0,0.998125,0.000000,0.000000,0.000000,0.000000,0.000000,0.000000,0.893963,0.232542,-0.893963,-0.232542,-0.185480,0,0
15656,0.388420,0.004900,-0.006500,-0.921447,0.000000,0.000000,0.000000,0.004000,-0.015000,-0.998000,3,22,1,22,37.5417949,127.0795466,37.792,0.645000,1.477000,0.004000,0.002000,0.018000,0.127000,1000,1000,1000,1000,1000.000000,0,0,0,0,0,1,0,0,0,3878,0.000000,0,0.000000,0.000000,0.000000,0.000000,0.000000,0.000000,0.000000,0.000000,0.000000,0.000000,0.000000,0.000000,0.000000,0.000000,0.000000,0.000000,0.000000,0.000000,0.000000,0.000000,0.000000,0.000000,0.000000,0.000000,0.000000,0.000000,0.000000,0.000000,0.000000,0.000000,0.000000,9.788220,0.000000,0.000000,0.000000,-0.000007,0.000001,0.000000,0.000000,0.000000,0.000000,0.000000,0.000000,0.000000,0.000000,0.000000,0.000000,0.000000,0.000000,0.000000,0.000000,0.000000,0.000000,0.000000,0.000000,0.000000,0.000000,0.000000,0.000000,0.000000,0.000000,0.000000,0.000000,0.000000,0.000000,0,0,0,0,0,0.000000,0,0,0,1,0,0,0.000000,0.000000,0.000000,0.000000,0.000000,0.000000,0,0.998121,0.000000,0.000000,0.000000,0.000000,0.000000,0.000000,0.904523,0.228091,-0.904523,-0.228091,0.164871,0,0
15705,0.388420,0.004900,-0.006400,-0.921447,0.000000,0.000000,0.000000,0.004000,-0.016000,-0.997000,3,22,1,22,37.5417949,127.0795466,37.792,0.645000,1.477000,0.004000,0.002000,0.018000,0.127000,1000,1000,1000,1000,1000.000000,0,0,0,0,0,1,0,0,0,3927,0.000000,0,0.000000,0.000000,0.000000,0.000000,0.000000,0.000000,0.000000,0.000000,0.000000,0.000000,0.000000,0.000000,0.000000,0.000000,0.000000,0.000000,0.000000,0.000000,0.000000,0.000000,0.000000,0.000000,0.000000,0.000000,0.000000,0.000000,0.000000,0.000000,0.000000,0.000000,0.000000,9.778567,0.000000,0.000000,0.000000,-0.000007,0.000001,0.000000,0.000000,0.000000,0.000000,0.000000,0.000000,0.000000,0.000000,0.000000,0.000000,0.000000,0.000000,0.000000,0.000000,0.000000,0.000000,0.000000,0.000000,0.000000,0.000000,0.000000,0.000000,0.000000,0.000000,0.000000,0.000000,0.000000,0.000000,0,0,0,0,0,0.000000,0,0,0,1,0,0,0.000000,0.000000,0.000000,0.000000,0.000000,0.000000,0,0.997136,0.000000,0.000000,0.000000,0.000000,0.000000,0.000000,0.893963,0.232542,-0.893963,-0.232542,-0.090847,0,0
15749,0.388420,0.004900,-0.006400,-0.921447,0.000000,0.000000,0.000000,0.004000,-0.013000,-0.998000,3,22,1,22,37.5417949,127.0795466,37.792,0.645000,1.477000,0.004000,0.002000,0.018000,0.127000,1000,1000,1000,1000,1000.000000,0,0,0,0,0,1,0,0,0,3971,0.000000,0,0.000000,0.000000,0.000000,0.000000,0.000000,0.000000,0.000000,0.000000,0.000000,0.000000,0.000000,0.000000,0.000000,0.000000,0.000000,0.000000,0.000000,0.000000,0.000000,0.000000,0.000000,0.000000,0.000000,0.000000,0.000000,0.000000,0.000000,0.000000,0.000000,0.000000,0.000000,9.787946,0.000000,0.000000,0.000000,-0.000007,0.000001,0.000000,0.000000,0.000000,0.000000,0.000000,0.000000,0.000000,0.000000,0.000000,0.000000,0.000000,0.000000,0.000000,0.000000,0.000000,0.000000,0.000000,0.000000,0.000000,0.000000,0.000000,0.000000,0.000000,0.000000,0.000000,0.000000,0.000000,0.000000,0,0,0,0,0,0.000000,0,0,0,1,0,0,0.000000,0.000000,0.000000,0.000000,0.000000,0.000000,0,0.998093,0.000000,0.000000,0.000000,0.000000,0.000000,0.000000,0.893963,0.232542,-0.893963,-0.232542,0.000000,0,0
15818,0.388420,0.004900,-0.006500,-0.921447,0.000000,0.000000,0.000000,0.003000,-0.016000,-0.998000,3,22,1,22,37.5417949,127.0795466,37.802,0.641000,1.469000,0.009000,0.008000,0.002000,0.115000,1000,1000,1000,1000,1000.000000,0,0,0,0,0,1,0,0,0,4040,0.000000,0,0.000000,0.000000,0.000000,0.000000,0.000000,0.000000,0.000000,0.000000,0.000000,0.000000,0.000000,0.000000,0.000000,0.000000,0.000000,0.000000,0.000000,0.000000,0.000000,0.000000,0.000000,0.000000,0.000000,0.000000,0.000000,0.000000,0.000000,0.000000,0.000000,0.000000,0.000000,9.788339,0.000000,0.000000,0.000000,-0.000007,0.000001,0.000000,0.000000,0.000000,0.000000,0.000000,0.000000,0.000000,0.000000,0.000000,0.000000,0.000000,0.000000,0.000000,0.000000,0.000000,0.000000,0.000000,0.000000,0.000000,0.000000,0.000000,0.000000,0.000000,0.000000,0.000000,0.000000,0.000000,0.000000,0,0,0,0,0,0.000000,0,0,0,1,0,0,0.000000,0.000000,0.000000,0.000000,0.000000,0.000000,0,0.998133,0.000000,0.000000,0.000000,0.000000,0.000000,0.000000,0.904523,0.228091,-0.904523,-0.228091,0.064515,0,0
15862,0.388420,0.004900,-0.006400,-0.921447,0.000000,0.000000,0.000000,0.004000,-0.014000,-0.994000,3,22,1,22,37.5417949,127.0795466,37.802,0.641000,1.469000,0.009000,0.008000,0.002000,0.115000,1000,1000,1000,1000,1000.000000,0,0,0,0,0,1,0,0,0,4084,0.000000,0,0.000000,0.000000,0.000000,0.000000,0.000000,0.000000,0.000000,0.000000,0.000000,0.000000,0.000000,0.000000,0.000000,0.000000,0.000000,0.000000,0.000000,0.000000,0.000000,0.000000,0.000000,0.000000,0.000000,0.000000,0.000000,0.000000,0.000000,0.000000,0.000000,0.000000,0.000000,9.748857,0.000000,0.000000,0.000000,-0.000007,0.000001,0.000000,0.000000,0.000000,0.000000,0.000000,0.000000,0.000000,0.000000,0.000000,0.000000,0.000000,0.000000,0.000000,0.000000,0.000000,0.000000,0.000000,0.000000,0.000000,0.000000,0.000000,0.000000,0.000000,0.000000,0.000000,0.000000,0.000000,0.000000,0,0,0,0,0,0.000000,0,0,0,1,0,0,0.000000,0.000000,0.000000,0.000000,0.000000,0.000000,0,0.994107,0.000000,0.000000,0.000000,0.000000,0.000000,0.000000,0.893963,0.232542,-0.893963,-0.232542,-0.101171,0,0
15906,0.388419,0.005000,-0.006500,-0.921446,0.000000,0.000000,0.000000,0.005000,-0.015000,-0.996000,3,22,1,22,37.5417950,127.0795466,37.789,0.638000,1.461000,-0.001000,-0.002000,0.012000,0.098000,1000,1000,1000,1000,1000.000000,0,0,0,0,0,1,0,0,0,4128,0.000000,0,0.000000,0.000000,0.000000,0.000000,0.000000,0.000000,0.000000,0.000000,0.000000,0.000000,0.000000,0.000000,0.000000,0.000000,0.000000,0.000000,0.000000,0.000000,0.000000,0.000000,0.000000,0.000000,0.000000,0.000000,0.000000,0.000000,0.000000,0.000000,0.000000,0.000000,0.000000,9.768654,0.000000,0.000000,0.000000,-0.000007,0.000001,0.000000,0.000000,0.000000,0.000000,0.000000,0.000000,0.000000,0.000000,0.000000,0.000000,0.000000,0.000000,0.000000,0.000000,0.000000,0.000000,0.000000,0.000000,0.000000,0.000000,0.000000,0.000000,0.000000,0.000000,0.000000,0.000000,0.000000,0.000000,0,0,0,0,0,0.000000,0,0,0,1,0,0,0.000000,0.000000,0.000000,0.000000,0.000000,0.000000,0,0.996125,0.000000,0.000000,0.000000,0.000000,0.000000,0.000000,0.908974,0.238650,-0.908974,-0.238650,-0.138815,0,0
15953,0.388419,0.005000,-0.006500,-0.921446,0.000000,0.000000,0.000000,0.003000,-0.016000,-0.999000,3,22,1,22,37.5417950,127.0795466,37.789,0.638000,1.461000,-0.001000,-0.002000,0.012000,0.098000,1000,1000,1000,1000,1000.000000,0,0,0,0,0,1,0,0,0,4175,0.000000,0,0.000000,0.000000,0.000000,0.000000,0.000000,0.000000,0.000000,0.000000,0.000000,0.000000,0.000000,0.000000,0.000000,0.000000,0.000000,0.000000,0.000000,0.000000,0.000000,0.000000,0.000000,0.000000,0.000000,0.000000,0.000000,0.000000,0.000000,0.000000,0.000000,0.000000,0.000000,9.798144,0.000000,0.000000,0.000000,-0.000007,0.000001,0.000000,0.000000,0.000000,0.000000,0.000000,0.000000,0.000000,0.000000,0.000000,0.000000,0.000000,0.000000,0.000000,0.000000,0.000000,0.000000,0.000000,0.000000,0.000000,0.000000,0.000000,0.000000,0.000000,0.000000,0.000000,0.000000,0.000000,0.000000,0,0,0,0,0,0.000000,0,0,0,1,0,0,0.000000,0.000000,0.000000,0.000000,0.000000,0.000000,0,0.999133,0.000000,0.000000,0.000000,0.000000,0.000000,0.000000,0.908974,0.238650,-0.908974,-0.238650,0.000000,0,0
15997,0.388419,0.005000,-0.006500,-0.921446,0.000000,0.000000,0.000000,0.004000,-0.015000,-0.996000,3,22,1,22,37.5417950,127.0795466,37.789,0.638000,1.461000,-0.001000,-0.002000,0.012000,0.098000,1000,1000,1000,1000,1000.000000,0,0,0,0,0,1,0,0,0,4219,0.000000,0,0.000000,0.000000,0.000000,0.000000,0.000000,0.000000,0.000000,0.000000,0.000000,0.000000,0.000000,0.000000,0.000000,0.000000,0.000000,0.000000,0.000000,0.000000,0.000000,0.000000,0.000000,0.000000,0.000000,0.000000,0.000000,0.000000,0.000000,0.000000,0.000000,0.000000,0.000000,9.768609,0.000000,0.000000,0.000000,-0.000007,0.000001,0.000000,0.000000,0.000000,0.000000,0.000000,0.000000,0.000000,0.000000,0.000000,0.000000,0.000000,0.000000,0.000000,0.000000,0.000000,0.000000,0.000000,0.000000,0.000000,0.000000,0.000000,0.000000,0.000000,0.000000,0.000000,0.000000,0.000000,0.000000,0,0,0,0,0,0.000000,0,0,0,1,0,0,0.000000,0.000000,0.000000,0.000000,0.000000,0.000000,0,0.996121,0.000000,0.000000,0.000000,0.000000,0.000000,0.000000,0.908974,0.238650,-0.908974,-0.238650,0.000000,0,0
16021,0.388420,0.005000,-0.006400,-0.921447,0.000000,0.000000,0.000000,0.003000,-0.014000,-0.997000,3,22,1,22,37.5417950,127.0795466,37.789,0.638000,1.461000,-0.001000,-0.002000,0.012000,0.098000,1000,1000,1000,1000,1000.000000,0,0,0,0,0,1,0,0,0,4243,0.000000,0,0.000000,0.000000,0.000000,0.000000,0.000000,0.000000,0.000000,0.000000,0.000000,0.000000,0.000000,0.000000,0.000000,0.000000,0.000000,0.000000,0.000000,0.000000,0.000000,0.000000,0.000000,0.000000,0.000000,0.000000,0.000000,0.000000,0.000000,0.000000,0.000000,0.000000,0.000000,9.778238,0.000000,0.000000,0.000000,-0.000007,0.000001,0.000000,0.000000,0.000000,0.000000,0.000000,0.000000,0.000000,0.000000,0.000000,0.000000,0.000000,0.000000,0.000000,0.000000,0.000000,0.000000,0.000000,0.000000,0.000000,0.000000,0.000000,0.000000,0.000000,0.000000,0.000000,0.000000,0.000000,0.000000,0,0,0,0,0,0.000000,0,0,0,1,0,0,0.000000,0.000000,0.000000,0.000000,0.000000,0.000000,0,0.997103,0.000000,0.000000,0.000000,0.000000,0.000000,0.000000,0.898415,0.243102,-0.898415,-0.243102,-0.185480,0,0
16065,0.388420,0.005000,-0.006400,-0.921447,0.000000,0.000000,0.000000,0.004000,-0.016000,-0.997000,3,22,1,22,37.5417950,127.0795467,37.790,0.635000,1.453000,-0.003000,0.000000,0.005000,0.090000,1000,1000,1000,1000,1000.000000,0,0,0,0,0,1,0,0,0,4287,0.000000,0,0.000000,0.000000,0.000000,0.000000,0.000000,0.000000,0.000000,0.000000,0.000000,0.000000,0.000000,0.000000,0.000000,0.000000,0.000000,0.000000,0.000000,0.000000,0.000000,0.000000,0.000000,0.000000,0.000000,0.000000,0.000000,0.000000,0.000000,0.000000,0.000000,0.000000,0.000000,9.778567,0.000000,0.000000,0.000000,-0.000007,0.000001,0.000000,0.000000,0.000000,0.000000,0.000000,0.000000,0.000000,0.000000,0.000000,0.000000,0.000000,0.000000,0.000000,0.000000,0.000000,0.000000,0.000000,0.000000,0.000000,0.000000,0.000000,0.000000,0.000000,0.000000,0.000000,0.000000,0.000000,0.000000,0,0,0,0,0,0.000000,0,0,0,1,0,0,0.000000,0.000000,0.000000,0.000000,0.000000,0.000000,0,0.997136,0.000000,0.000000,0.000000,0.000000,0.000000,0.000000,0.898415,0.243102,-0.898415,-0.243102,0.000000,0,0
