timestamp_ms,qw,qx,qy,qz,gx,gy,gz,ax,ay,az,gnss_fix_type,numSV,gnss_valid,gnss_num_sats,lat,lon,hmsl,gnss_hacc_m,gnss_vacc_m,gnss_vel_n_mps,gnss_vel_e_mps,gnss_vel_d_mps,gnss_sacc_mps,M1,M2,M3,M4,ekf_pwm_mean,ekf_is_armed,ekf_ground_motor_mode,motor_output_allowed,motor_on_detected,alignment_active,alignment_done,ekf_ready,gnss_ref_set,gnss_ref_ready,gnss_ref_age_ms,ekf_dt,ekf_dt_clamped,ekf_pos_n,ekf_pos_e,ekf_pos_d,ekf_vel_n,ekf_vel_e,ekf_vel_d,ekf_p_cov_n,ekf_p_cov_e,ekf_p_cov_d,ekf_v_cov_n,ekf_v_cov_e,ekf_v_cov_d,ekf_qw,ekf_qx,ekf_qy,ekf_qz,ekf_roll_deg,ekf_pitch_deg,ekf_yaw_deg,roll_deg,pitch_deg,yaw_deg,ekf_accel_body_x,ekf_accel_body_y,ekf_accel_body_z,ekf_accel_nav_n,ekf_accel_nav_e,ekf_accel_nav_d,acc_ned_n,acc_ned_e,acc_ned_d,accel_norm,accel_bias_x,accel_bias_y,accel_bias_z,gyro_bias_x,gyro_bias_y,gyro_bias_z,ekf_bias_acc_x,ekf_bias_acc_y,ekf_bias_acc_z,ekf_bias_gyro_x,ekf_bias_gyro_y,ekf_bias_gyro_z,ekf_gnss_pos_n,ekf_gnss_pos_e,ekf_gnss_pos_d,ekf_innov_pos_n,ekf_innov_pos_e,ekf_innov_pos_d,ekf_innov_vel_n,ekf_innov_vel_e,ekf_innov_vel_d,ekf_R_applied_gnss_pos_n,ekf_R_applied_gnss_pos_e,ekf_R_applied_gnss_pos_d,ekf_R_applied_gnss_vel_n,ekf_R_applied_gnss_vel_e,ekf_R_applied_gnss_vel_d,ekf_sigma_applied_gnss_pos_n,ekf_sigma_applied_gnss_pos_e,ekf_sigma_applied_gnss_pos_d,ekf_sigma_applied_gnss_vel_n,ekf_sigma_applied_gnss_vel_e,ekf_sigma_applied_gnss_vel_d,gnss_correction_accepted,gnss_update_executed,gnss_new_measurement,gnss_velocity_used,gnss_position_gate_passed,gnss_update_dt,gnss_last_update_age_ms,gnss_innov_gate_reject_count,ekf_zupt_applied,ekf_zupt_allowed,zupt_active,stationary_detected,delta_vel_gnss_update_n,delta_vel_gnss_update_e,delta_vel_gnss_update_d,delta_vel_zupt_update_n,delta_vel_zupt_update_e,delta_vel_zupt_update_d,tether_disturbance_candidate,raw_acc_norm_g,acc_ned_h,ekf_speed_h,delta_vel_gnss_update_xy,gyro_raw_norm,gyro_lpf_norm,gyro_corrected_norm,imu_fw_roll_deg,imu_fw_pitch_deg,ekf_imu_roll_diff_deg,ekf_imu_pitch_diff_deg,pitch_diff_rate_deg_s,accel_rotation_source,accel_rotation_source_used
11584,0.404212,0.005900,0.020001,-0.914428,0.000000,0.000000,0.000000,0.026000,0.034000,-0.995000,0,0,0,0,0.0000000,0.0000000,0.000,0.000000,0.000000,0.000000,0.000000,0.000000,0.000000,1000,1000,1000,1000,1000.000000,0,0,0,0,1,0,0,0,0,0,0.000000,0,0.000000,0.000000,0.000000,0.000000,0.000000,0.000000,0.000000,0.000000,0.000000,0.000000,0.000000,0.000000,0.000000,0.000000,0.000000,0.000000,0.000000,0.000000,0.000000,0.000000,0.000000,0.000000,0.000000,0.000000,0.000000,0.000000,0.000000,0.000000,0.000000,0.000000,0.000000,9.766641,0.000000,0.000000,0.000000,0.000000,0.000000,0.000000,0.000000,0.000000,0.000000,0.000000,0.000000,0.000000,0.000000,0.000000,0.000000,0.000000,0.000000,0.000000,0.000000,0.000000,0.000000,0.000000,0.000000,0.000000,0.000000,0.000000,0.000000,0.000000,0.000000,0.000000,0.000000,0.000000,0.000000,0,0,0,0,0,0.000000,0,0,0,1,0,0,0.000000,0.000000,0.000000,0.000000,0.000000,0.000000,0,0.995920,0.000000,0.000000,0.000000,0.000000,0.000000,0.000000,-1.823455,1.544855,1.823455,-1.544855,0.000000,0,0
11628,0.404212,0.006000,0.020001,-0.914427,0.000000,0.000000,0.000000,0.027000,0.030000,-0.997000,0,0,0,0,0.0000000,0.0000000,0.000,0.000000,0.000000,0.000000,0.000000,0.000000,0.000000,1000,1000,1000,1000,1000.000000,0,0,0,0,1,0,0,0,0,0,0.000000,0,0.000000,0.000000,0.000000,0.000000,0.000000,0.000000,0.000000,0.000000,0.000000,0.000000,0.000000,0.000000,0.000000,0.000000,0.000000,0.000000,0.000000,0.000000,0.000000,0.000000,0.000000,0.000000,0.000000,0.000000,0.000000,0.000000,0.000000,0.000000,0.000000,0.000000,0.000000,9.785238,0.000000,0.000000,0.000000,0.000000,0.000000,0.000000,0.000000,0.000000,0.000000,0.000000,0.000000,0.000000,0.000000,0.000000,0.000000,0.000000,0.000000,0.000000,0.000000,0.000000,0.000000,0.000000,0.000000,0.000000,0.000000,0.000000,0.000000,0.000000,0.000000,0.000000,0.000000,0.000000,0.000000,0,0,0,0,0,0.000000,0,0,0,1,0,0,0.000000,0.000000,0.000000,0.000000,0.000000,0.000000,0,0.997817,0.000000,0.000000,0.000000,0.000000,0.000000,0.000000,-1.818826,1.555336,1.818826,-1.555336,-0.238199,0,0
11672,0.404212,0.006000,0.020001,-0.914427,0.000000,0.000000,0.000000,0.028000,0.032000,-0.996000,0,0,0,0,0.0000000,0.0000000,0.000,0.000000,0.000000,0.000000,0.000000,0.000000,0.000000,1000,1000,1000,1000,1000.000000,0,0,0,0,1,0,0,0,0,0,0.000000,0,0.000000,0.000000,0.000000,0.000000,0.000000,0.000000,0.000000,0.000000,0.000000,0.000000,0.000000,0.000000,0.000000,0.000000,0.000000,0.000000,0.000000,0.000000,0.000000,0.000000,0.000000,0.000000,0.000000,0.000000,0.000000,0.000000,0.000000,0.000000,0.000000,0.000000,0.000000,9.776320,0.000000,0.000000,0.000000,0.000000,0.000000,0.000000,0.000000,0.000000,0.000000,0.000000,0.000000,0.000000,0.000000,0.000000,0.000000,0.000000,0.000000,0.000000,0.000000,0.000000,0.000000,0.000000,0.000000,0.000000,0.000000,0.000000,0.000000,0.000000,0.000000,0.000000,0.000000,0.000000,0.000000,0,0,0,0,0,0.000000,0,0,0,1,0,0,0.000000,0.000000,0.000000,0.000000,0.000000,0.000000,0,0.996907,0.000000,0.000000,0.000000,0.000000,0.000000,0.000000,-1.818826,1.555336,1.818826,-1.555336,0.000000,0,0
11716,0.404212,0.006000,0.020001,-0.914427,0.000000,0.000000,0.000000,0.025000,0.029000,-0.996000,3,18,1,18,37.5417956,127.0795546,43.437,0.797000,2.085000,-0.001000,0.017000,-0.010000,0.134000,1000,1000,1000,1000,1000.000000,0,0,0,0,1,0,0,0,0,9,0.000000,0,0.000000,0.000000,0.000000,0.000000,0.000000,0.000000,0.000000,0.000000,0.000000,0.000000,0.000000,0.000000,0.000000,0.000000,0.000000,0.000000,0.000000,0.000000,0.000000,0.000000,0.000000,0.000000,0.000000,0.000000,0.000000,0.000000,0.000000,0.000000,0.000000,0.000000,0.000000,9.774637,0.000000,0.000000,0.000000,0.000000,0.000000,0.000000,0.000000,0.000000,0.000000,0.000000,0.000000,0.000000,0.000000,0.000000,0.000000,0.000000,0.000000,0.000000,0.000000,0.000000,0.000000,0.000000,0.000000,0.000000,0.000000,0.000000,0.000000,0.000000,0.000000,0.000000,0.000000,0.000000,0.000000,0,0,0,0,0,0.000000,0,0,0,1,0,0,0.000000,0.000000,0.000000,0.000000,0.000000,0.000000,0,0.996736,0.000000,0.000000,0.000000,0.000000,0.000000,0.000000,-1.818826,1.555336,1.818826,-1.555336,0.000000,0,0
11743,0.404212,0.006000,0.020001,-0.914427,0.000000,0.000000,0.000000,0.027000,0.033000,-0.996000,3,18,1,18,37.5417956,127.0795546,43.437,0.797000,2.085000,-0.001000,0.017000,-0.010000,0.134000,1000,1000,1000,1000,1000.000000,0,0,0,0,1,0,0,0,0,35,0.000000,0,0.000000,0.000000,0.000000,0.000000,0.000000,0.000000,0.000000,0.000000,0.000000,0.000000,0.000000,0.000000,0.000000,0.000000,0.000000,0.000000,0.000000,0.000000,0.000000,0.000000,0.000000,0.000000,0.000000,0.000000,0.000000,0.000000,0.000000,0.000000,0.000000,0.000000,0.000000,9.776370,0.000000,0.000000,0.000000,0.000000,0.000000,0.000000,0.000000,0.000000,0.000000,0.000000,0.000000,0.000000,0.000000,0.000000,0.000000,0.000000,0.000000,0.000000,0.000000,0.000000,0.000000,0.000000,0.000000,0.000000,0.000000,0.000000,0.000000,0.000000,0.000000,0.000000,0.000000,0.000000,0.000000,0,0,0,0,0,0.000000,0,0,0,1,0,0,0.000000,0.000000,0.000000,0.000000,0.000000,0.000000,0,0.996912,0.000000,0.000000,0.000000,0.000000,0.000000,0.000000,-1.818826,1.555336,1.818826,-1.555336,0.000000,0,0
11795,0.404212,0.006000,0.020001,-0.914427,0.000000,0.000000,0.000000,0.026000,0.031000,-0.997000,3,18,1,18,37.5417956,127.0795546,43.437,0.797000,2.085000,-0.001000,0.017000,-0.010000,0.134000,1000,1000,1000,1000,1000.000000,0,0,0,0,1,0,0,0,0,88,0.000000,0,0.000000,0.000000,0.000000,0.000000,0.000000,0.000000,0.000000,0.000000,0.000000,0.000000,0.000000,0.000000,0.000000,0.000000,0.000000,0.000000,0.000000,0.000000,0.000000,0.000000,0.000000,0.000000,0.000000,0.000000,0.000000,0.000000,0.000000,0.000000,0.000000,0.000000,0.000000,9.785277,0.000000,0.000000,0.000000,0.000000,0.000000,0.000000,0.000000,0.000000,0.000000,0.000000,0.000000,0.000000,0.000000,0.000000,0.000000,0.000000,0.000000,0.000000,0.000000,0.000000,0.000000,0.000000,0.000000,0.000000,0.000000,0.000000,0.000000,0.000000,0.000000,0.000000,0.000000,0.000000,0.000000,0,0,0,0,0,0.000000,0,0,0,1,0,0,0.000000,0.000000,0.000000,0.000000,0.000000,0.000000,0,0.997821,0.000000,0.000000,0.000000,0.000000,0.000000,0.000000,-1.818826,1.555336,1.818826,-1.555336,0.000000,0,0
11843,0.404212,0.006000,0.020001,-0.914427,0.000000,0.000000,0.000000,0.027000,0.032000,-0.996000,3,18,1,18,37.5417957,127.0795542,43.379,0.791000,2.069000,-0.009000,-0.007000,-0.011000,0.133000,1000,1000,1000,1000,1000.000000,0,0,0,0,1,0,0,0,0,135,0.000000,0,0.000000,0.000000,0.000000,0.000000,0.000000,0.000000,0.000000,0.000000,0.000000,0.000000,0.000000,0.000000,0.000000,0.000000,0.000000,0.000000,0.000000,0.000000,0.000000,0.000000,0.000000,0.000000,0.000000,0.000000,0.000000,0.000000,0.000000,0.000000,0.000000,0.000000,0.000000,9.776050,0.000000,0.000000,0.000000,0.000000,0.000000,0.000000,0.000000,0.000000,0.000000,0.000000,0.000000,0.000000,0.000000,0.000000,0.000000,0.000000,0.000000,0.000000,0.000000,0.000000,0.000000,0.000000,0.000000,0.000000,0.000000,0.000000,0.000000,0.000000,0.000000,0.000000,0.000000,0.000000,0.000000,0,0,0,0,0,0.000000,0,0,0,1,0,0,0.000000,0.000000,0.000000,0.000000,0.000000,0.000000,0,0.996880,0.000000,0.000000,0.000000,0.000000,0.000000,0.000000,-1.818826,1.555336,1.818826,-1.555336,0.000000,0,0
11866,0.404212,0.006000,0.020001,-0.914427,0.000000,0.000000,0.000000,0.025000,0.031000,-0.997000,3,18,1,18,37.5417957,127.0795542,43.379,0.791000,2.069000,-0.009000,-0.007000,-0.011000,0.133000,1000,1000,1000,1000,1000.000000,0,0,0,0,1,0,0,0,0,159,0.000000,0,0.000000,0.000000,0.000000,0.000000,0.000000,0.000000,0.000000,0.000000,0.000000,0.000000,0.000000,0.000000,0.000000,0.000000,0.000000,0.000000,0.000000,0.000000,0.000000,0.000000,0.000000,0.000000,0.000000,0.000000,0.000000,0.000000,0.000000,0.000000,0.000000,0.000000,0.000000,9.785027,0.000000,0.000000,0.000000,0.000000,0.000000,0.000000,0.000000,0.000000,0.000000,0.000000,0.000000,0.000000,0.000000,0.000000,0.000000,0.000000,0.000000,0.000000,0.000000,0.000000,0.000000,0.000000,0.000000,0.000000,0.000000,0.000000,0.000000,0.000000,0.000000,0.000000,0.000000,0.000000,0.000000,0,0,0,0,0,0.000000,0,0,0,1,0,0,0.000000,0.000000,0.000000,0.000000,0.000000,0.000000,0,0.997795,0.000000,0.000000,0.000000,0.000000,0.000000,0.000000,-1.818826,1.555336,1.818826,-1.555336,0.000000,0,0
11926,0.404212,0.006000,0.020001,-0.914427,0.000000,0.000000,0.000000,0.026000,0.030000,-0.997000,3,18,1,18,37.5417957,127.0795542,43.379,0.791000,2.069000,-0.009000,-0.007000,-0.011000,0.133000,1000,1000,1000,1000,1000.000000,0,0,0,0,1,0,0,0,0,219,0.000000,0,0.000000,0.000000,0.000000,0.000000,0.000000,0.000000,0.000000,0.000000,0.000000,0.000000,0.000000,0.000000,0.000000,0.000000,0.000000,0.000000,0.000000,0.000000,0.000000,0.000000,0.000000,0.000000,0.000000,0.000000,0.000000,0.000000,0.000000,0.000000,0.000000,0.000000,0.000000,9.784978,0.000000,0.000000,0.000000,0.000000,0.000000,0.000000,0.000000,0.000000,0.000000,0.000000,0.000000,0.000000,0.000000,0.000000,0.000000,0.000000,0.000000,0.000000,0.000000,0.000000,0.000000,0.000000,0.000000,0.000000,0.000000,0.000000,0.000000,0.000000,0.000000,0.000000,0.000000,0.000000,0.000000,0,0,0,0,0,0.000000,0,0,0,1,0,0,0.000000,0.000000,0.000000,0.000000,0.000000,0.000000,0,0.997790,0.000000,0.000000,0.000000,0.000000,0.000000,0.000000,-1.818826,1.555336,1.818826,-1.555336,0.000000,0,0
11950,0.404212,0.006000,0.020001,-0.914427,0.000000,0.000000,0.000000,0.025000,0.029000,-0.997000,3,18,1,18,37.5417957,127.0795542,43.379,0.791000,2.069000,-0.009000,-0.007000,-0.011000,0.133000,1000,1000,1000,1000,1000.000000,0,0,0,0,1,0,0,0,0,243,0.000000,0,0.000000,0.000000,0.000000,0.000000,0.000000,0.000000,0.000000,0.000000,0.000000,0.000000,0.000000,0.000000,0.000000,0.000000,0.000000,0.000000,0.000000,0.000000,0.000000,0.000000,0.000000,0.000000,0.000000,0.000000,0.000000,0.000000,0.000000,0.000000,0.000000,0.000000,0.000000,9.784437,0.000000,0.000000,0.000000,0.000000,0.000000,0.000000,0.000000,0.000000,0.000000,0.000000,0.000000,0.000000,0.000000,0.000000,0.000000,0.000000,0.000000,0.000000,0.000000,0.000000,0.000000,0.000000,0.000000,0.000000,0.000000,0.000000,0.000000,0.000000,0.000000,0.000000,0.000000,0.000000,0.000000,0,0,0,0,0,0.000000,0,0,0,1,0,0,0.000000,0.000000,0.000000,0.000000,0.000000,0.000000,0,0.997735,0.000000,0.000000,0.000000,0.000000,0.000000,0.000000,-1.818826,1.555336,1.818826,-1.555336,0.000000,0,0
11994,0.404212,0.005900,0.020001,-0.914428,0.000000,0.000000,0.000000,0.028000,0.030000,-0.996000,3,19,1,19,37.5417958,127.0795540,43.336,0.785000,2.053000,0.017000,0.012000,-0.002000,0.096000,1000,1000,1000,1000,1000.000000,0,0,0,0,1,0,0,0,0,287,0.000000,0,0.000000,0.000000,0.000000,0.000000,0.000000,0.000000,0.000000,0.000000,0.000000,0.000000,0.000000,0.000000,0.000000,0.000000,0.000000,0.000000,0.000000,0.000000,0.000000,0.000000,0.000000,0.000000,0.000000,0.000000,0.000000,0.000000,0.000000,0.000000,0.000000,0.000000,0.000000,9.775710,0.000000,0.000000,0.000000,0.000000,0.000000,0.000000,0.000000,0.000000,0.000000,0.000000,0.000000,0.000000,0.000000,0.000000,0.000000,0.000000,0.000000,0.000000,0.000000,0.000000,0.000000,0.000000,0.000000,0.000000,0.000000,0.000000,0.000000,0.000000,0.000000,0.000000,0.000000,0.000000,0.000000,0,0,0,0,0,0.000000,0,0,0,1,0,0,0.000000,0.000000,0.000000,0.000000,0.000000,0.000000,0,0.996845,0.000000,0.000000,0.000000,0.000000,0.000000,0.000000,-1.823455,1.544855,1.823455,-1.544855,0.238199,0,0
12038,0.404212,0.005900,0.020001,-0.914428,0.000000,0.000000,0.000000,0.027000,0.030000,-0.997000,3,19,1,19,37.5417958,127.0795540,43.336,0.785000,2.053000,0.017000,0.012000,-0.002000,0.096000,1000,1000,1000,1000,1000.000000,0,0,0,0,1,0,0,0,0,331,0.000000,0,0.000000,0.000000,0.000000,0.000000,0.000000,0.000000,0.000000,0.000000,0.000000,0.000000,0.000000,0.000000,0.000000,0.000000,0.000000,0.000000,0.000000,0.000000,0.000000,0.000000,0.000000,0.000000,0.000000,0.000000,0.000000,0.000000,0.000000,0.000000,0.000000,0.000000,0.000000,9.785238,0.000000,0.000000,0.000000,0.000000,0.000000,0.000000,0.000000,0.000000,0.000000,0.000000,0.000000,0.000000,0.000000,0.000000,0.000000,0.000000,0.000000,0.000000,0.000000,0.000000,0.000000,0.000000,0.000000,0.000000,0.000000,0.000000,0.000000,0.000000,0.000000,0.000000,0.000000,0.000000,0.000000,0,0,0,0,0,0.000000,0,0,0,1,0,0,0.000000,0.000000,0.000000,0.000000,0.000000,0.000000,0,0.997817,0.000000,0.000000,0.000000,0.000000,0.000000,0.000000,-1.823455,1.544855,1.823455,-1.544855,0.000000,0,0
12072,0.404212,0.006000,0.020001,-0.914427,0.000000,0.000000,0.000000,0.027000,0.031000,-0.996000,3,19,1,19,37.5417958,127.0795540,43.336,0.785000,2.053000,0.017000,0.012000,-0.002000,0.096000,1000,1000,1000,1000,1000.000000,0,0,0,0,1,0,0,0,0,365,0.000000,0,0.000000,0.000000,0.000000,0.000000,0.000000,0.000000,0.000000,0.000000,0.000000,0.000000,0.000000,0.000000,0.000000,0.000000,0.000000,0.000000,0.000000,0.000000,0.000000,0.000000,0.000000,0.000000,0.000000,0.000000,0.000000,0.000000,0.000000,0.000000,0.000000,0.000000,0.000000,9.775740,0.000000,0.000000,0.000000,0.000000,0.000000,0.000000,0.000000,0.000000,0.000000,0.000000,0.000000,0.000000,0.000000,0.000000,0.000000,0.000000,0.000000,0.000000,0.000000,0.000000,0.000000,0.000000,0.000000,0.000000,0.000000,0.000000,0.000000,0.000000,0.000000,0.000000,0.000000,0.000000,0.000000,0,0,0,0,0,0.000000,0,0,0,1,0,0,0.000000,0.000000,0.000000,0.000000,0.000000,0.000000,0,0.996848,0.000000,0.000000,0.000000,0.000000,0.000000,0.000000,-1.818826,1.555336,1.818826,-1.555336,-0.308258,0,0
12116,0.404212,0.006000,0.020001,-0.914427,0.000000,0.000000,0.000000,0.027000,0.031000,-0.995000,3,19,1,19,37.5417958,127.0795538,43.317,0.779000,2.038000,-0.003000,-0.014000,-0.015000,0.132000,1000,1000,1000,1000,1000.000000,0,0,0,0,1,0,0,0,0,409,0.000000,0,0.000000,0.000000,0.000000,0.000000,0.000000,0.000000,0.000000,0.000000,0.000000,0.000000,0.000000,0.000000,0.000000,0.000000,0.000000,0.000000,0.000000,0.000000,0.000000,0.000000,0.000000,0.000000,0.000000,0.000000,0.000000,0.000000,0.000000,0.000000,0.000000,0.000000,0.000000,9.765941,0.000000,0.000000,0.000000,0.000000,0.000000,0.000000,0.000000,0.000000,0.000000,0.000000,0.000000,0.000000,0.000000,0.000000,0.000000,0.000000,0.000000,0.000000,0.000000,0.000000,0.000000,0.000000,0.000000,0.000000,0.000000,0.000000,0.000000,0.000000,0.000000,0.000000,0.000000,0.000000,0.000000,0,0,0,0,0,0.000000,0,0,0,1,0,0,0.000000,0.000000,0.000000,0.000000,0.000000,0.000000,0,0.995849,0.000000,0.000000,0.000000,0.000000,0.000000,0.000000,-1.818826,1.555336,1.818826,-1.555336,0.000000,0,0
12143,0.404212,0.006000,0.020001,-0.914427,0.000000,0.000000,0.000000,0.026000,0.030000,-0.996000,3,19,1,19,37.5417958,127.0795538,43.317,0.779000,2.038000,-0.003000,-0.014000,-0.015000,0.132000,1000,1000,1000,1000,1000.000000,0,0,0,0,1,0,0,0,0,435,0.000000,0,0.000000,0.000000,0.000000,0.000000,0.000000,0.000000,0.000000,0.000000,0.000000,0.000000,0.000000,0.000000,0.000000,0.000000,0.000000,0.000000,0.000000,0.000000,0.000000,0.000000,0.000000,0.000000,0.000000,0.000000,0.000000,0.000000,0.000000,0.000000,0.000000,0.000000,0.000000,9.775179,0.000000,0.000000,0.000000,0.000000,0.000000,0.000000,0.000000,0.000000,0.000000,0.000000,0.000000,0.000000,0.000000,0.000000,0.000000,0.000000,0.000000,0.000000,0.000000,0.000000,0.000000,0.000000,0.000000,0.000000,0.000000,0.000000,0.000000,0.000000,0.000000,0.000000,0.000000,0.000000,0.000000,0,0,0,0,0,0.000000,0,0,0,1,0,0,0.000000,0.000000,0.000000,0.000000,0.000000,0.000000,0,0.996791,0.000000,0.000000,0.000000,0.000000,0.000000,0.000000,-1.818826,1.555336,1.818826,-1.555336,0.000000,0,0
12203,0.404212,0.006000,0.020001,-0.914427,0.000000,0.000000,0.000000,0.027000,0.031000,-0.996000,3,19,1,19,37.5417958,127.0795538,43.317,0.779000,2.038000,-0.003000,-0.014000,-0.015000,0.132000,1000,1000,1000,1000,1000.000000,0,0,0,0,1,0,0,0,0,496,0.000000,0,0.000000,0.000000,0.000000,0.000000,0.000000,0.000000,0.000000,0.000000,0.000000,0.000000,0.000000,0.000000,0.000000,0.000000,0.000000,0.000000,0.000000,0.000000,0.000000,0.000000,0.000000,0.000000,0.000000,0.000000,0.000000,0.000000,0.000000,0.000000,0.000000,0.000000,0.000000,9.775740,0.000000,0.000000,0.000000,0.000000,0.000000,0.000000,0.000000,0.000000,0.000000,0.000000,0.000000,0.000000,0.000000,0.000000,0.000000,0.000000,0.000000,0.000000,0.000000,0.000000,0.000000,0.000000,0.000000,0.000000,0.000000,0.000000,0.000000,0.000000,0.000000,0.000000,0.000000,0.000000,0.000000,0,0,0,0,0,0.000000,0,0,0,1,0,0,0.000000,0.000000,0.000000,0.000000,0.000000,0.000000,0,0.996848,0.000000,0.000000,0.000000,0.000000,0.000000,0.000000,-1.818826,1.555336,1.818826,-1.555336,0.000000,0,0
12227,0.404212,0.006000,0.020001,-0.914427,0.000000,0.000000,0.000000,0.026000,0.032000,-0.996000,3,19,1,19,37.5417958,127.0795535,43.273,0.774000,2.024000,-0.013000,-0.002000,-0.020000,0.144000,1000,1000,1000,1000,1000.000000,0,0,0,0,1,0,0,0,0,520,0.000000,0,0.000000,0.000000,0.000000,0.000000,0.000000,0.000000,0.000000,0.000000,0.000000,0.000000,0.000000,0.000000,0.000000,0.000000,0.000000,0.000000,0.000000,0.000000,0.000000,0.000000,0.000000,0.000000,0.000000,0.000000,0.000000,0.000000,0.000000,0.000000,0.000000,0.000000,0.000000,9.775788,0.000000,0.000000,0.000000,0.000000,0.000000,0.000000,0.000000,0.000000,0.000000,0.000000,0.000000,0.000000,0.000000,0.000000,0.000000,0.000000,0.000000,0.000000,0.000000,0.000000,0.000000,0.000000,0.000000,0.000000,0.000000,0.000000,0.000000,0.000000,0.000000,0.000000,0.000000,0.000000,0.000000,0,0,0,0,0,0.000000,0,0,0,1,0,0,0.000000,0.000000,0.000000,0.000000,0.000000,0.000000,0,0.996853,0.000000,0.000000,0.000000,0.000000,0.000000,0.000000,-1.818826,1.555336,1.818826,-1.555336,0.000000,0,0
12271,0.404212,0.006000,0.020001,-0.914427,0.000000,0.000000,0.000000,0.026000,0.032000,-0.996000,3,19,1,19,37.5417958,127.0795535,43.273,0.774000,2.024000,-0.013000,-0.002000,-0.020000,0.144000,1000,1000,1000,1000,1000.000000,0,0,0,0,1,0,0,0,0,564,0.000000,0,0.000000,0.000000,0.000000,0.000000,0.000000,0.000000,0.000000,0.000000,0.000000,0.000000,0.000000,0.000000,0.000000,0.000000,0.000000,0.000000,0.000000,0.000000,0.000000,0.000000,0.000000,0.000000,0.000000,0.000000,0.000000,0.000000,0.000000,0.000000,0.000000,0.000000,0.000000,9.775788,0.000000,0.000000,0.000000,0.000000,0.000000,0.000000,0.000000,0.000000,0.000000,0.000000,0.000000,0.000000,0.000000,0.000000,0.000000,0.000000,0.000000,0.000000,0.000000,0.000000,0.000000,0.000000,0.000000,0.000000,0.000000,0.000000,0.000000,0.000000,0.000000,0.000000,0.000000,0.000000,0.000000,0,0,0,0,0,0.000000,0,0,0,1,0,0,0.000000,0.000000,0.000000,0.000000,0.000000,0.000000,0,0.996853,0.000000,0.000000,0.000000,0.000000,0.000000,0.000000,-1.818826,1.555336,1.818826,-1.555336,0.000000,0,0
12315,0.404212,0.006000,0.020001,-0.914427,0.000000,0.000000,0.000000,0.027000,0.030000,-0.995000,3,19,1,19,37.5417958,127.0795535,43.273,0.774000,2.024000,-0.013000,-0.002000,-0.020000,0.144000,1000,1000,1000,1000,1000.000000,0,0,0,0,1,0,0,0,0,608,0.000000,0,0.000000,0.000000,0.000000,0.000000,0.000000,0.000000,0.000000,0.000000,0.000000,0.000000,0.000000,0.000000,0.000000,0.000000,0.000000,0.000000,0.000000,0.000000,0.000000,0.000000,0.000000,0.000000,0.000000,0.000000,0.000000,0.000000,0.000000,0.000000,0.000000,0.000000,0.000000,9.765641,0.000000,0.000000,0.000000,0.000000,0.000000,0.000000,0.000000,0.000000,0.000000,0.000000,0.000000,0.000000,0.000000,0.000000,0.000000,0.000000,0.000000,0.000000,0.000000,0.000000,0.000000,0.000000,0.000000,0.000000,0.000000,0.000000,0.000000,0.000000,0.000000,0.000000,0.000000,0.000000,0.000000,0,0,0,0,0,0.000000,0,0,0,1,0,0,0.000000,0.000000,0.000000,0.000000,0.000000,0.000000,0,0.995818,0.000000,0.000000,0.000000,0.000000,0.000000,0.000000,-1.818826,1.555336,1.818826,-1.555336,0.000000,0,0
12343,0.404212,0.005900,0.020001,-0.914428,0.000000,0.000000,0.000000,0.025000,0.030000,-0.997000,3,19,1,19,37.5417958,127.0795532,43.238,0.769000,2.010000,0.002000,-0.001000,-0.023000,0.120000,1000,1000,1000,1000,1000.000000,0,0,0,0,1,0,0,0,0,635,0.000000,0,0.000000,0.000000,0.000000,0.000000,0.000000,0.000000,0.000000,0.000000,0.000000,0.000000,0.000000,0.000000,0.000000,0.000000,0.000000,0.000000,0.000000,0.000000,0.000000,0.000000,0.000000,0.000000,0.000000,0.000000,0.000000,0.000000,0.000000,0.000000,0.000000,0.000000,0.000000,9.784727,0.000000,0.000000,0.000000,0.000000,0.000000,0.000000,0.000000,0.000000,0.000000,0.000000,0.000000,0.000000,0.000000,0.000000,0.000000,0.000000,0.000000,0.000000,0.000000,0.000000,0.000000,0.000000,0.000000,0.000000,0.000000,0.000000,0.000000,0.000000,0.000000,0.000000,0.000000,0.000000,0.000000,0,0,0,0,0,0.000000,0,0,0,1,0,0,0.000000,0.000000,0.000000,0.000000,0.000000,0.000000,0,0.997764,0.000000,0.000000,0.000000,0.000000,0.000000,0.000000,-1.823455,1.544855,1.823455,-1.544855,0.374313,0,0
12395,0.404212,0.005900,0.020001,-0.914428,0.000000,0.000000,0.000000,0.026000,0.030000,-0.997000,3,19,1,19,37.5417958,127.0795532,43.238,0.769000,2.010000,0.002000,-0.001000,-0.023000,0.120000,1000,1000,1000,1000,1000.000000,0,0,0,0,1,0,0,0,0,688,0.000000,0,0.000000,0.000000,0.000000,0.000000,0.000000,0.000000,0.000000,0.000000,0.000000,0.000000,0.000000,0.000000,0.000000,0.000000,0.000000,0.000000,0.000000,0.000000,0.000000,0.000000,0.000000,0.000000,0.000000,0.000000,0.000000,0.000000,0.000000,0.000000,0.000000,0.000000,0.000000,9.784978,0.000000,0.000000,0.000000,0.000000,0.000000,0.000000,0.000000,0.000000,0.000000,0.000000,0.000000,0.000000,0.000000,0.000000,0.000000,0.000000,0.000000,0.000000,0.000000,0.000000,0.000000,0.000000,0.000000,0.000000,0.000000,0.000000,0.000000,0.000000,0.000000,0.000000,0.000000,0.000000,0.000000,0,0,0,0,0,0.000000,0,0,0,1,0,0,0.000000,0.000000,0.000000,0.000000,0.000000,0.000000,0,0.997790,0.000000,0.000000,0.000000,0.000000,0.000000,0.000000,-1.823455,1.544855,1.823455,-1.544855,0.000000,0,0
12443,0.404212,0.005900,0.020001,-0.914428,0.000000,0.000000,0.000000,0.025000,0.030000,-0.997000,3,19,1,19,37.5417958,127.0795532,43.238,0.769000,2.010000,0.002000,-0.001000,-0.023000,0.120000,1000,1000,1000,1000,1000.000000,0,0,0,0,1,0,0,0,0,735,0.000000,0,0.000000,0.000000,0.000000,0.000000,0.000000,0.000000,0.000000,0.000000,0.000000,0.000000,0.000000,0.000000,0.000000,0.000000,0.000000,0.000000,0.000000,0.000000,0.000000,0.000000,0.000000,0.000000,0.000000,0.000000,0.000000,0.000000,0.000000,0.000000,0.000000,0.000000,0.000000,9.784727,0.000000,0.000000,0.000000,0.000000,0.000000,0.000000,0.000000,0.000000,0.000000,0.000000,0.000000,0.000000,0.000000,0.000000,0.000000,0.000000,0.000000,0.000000,0.000000,0.000000,0.000000,0.000000,0.000000,0.000000,0.000000,0.000000,0.000000,0.000000,0.000000,0.000000,0.000000,0.000000,0.000000,0,0,0,0,0,0.000000,0,0,0,1,0,0,0.000000,0.000000,0.000000,0.000000,0.000000,0.000000,0,0.997764,0.000000,0.000000,0.000000,0.000000,0.000000,0.000000,-1.823455,1.544855,1.823455,-1.544855,0.000000,0,0
12500,0.404212,0.005900,0.020001,-0.914428,0.000000,0.000000,0.000000,0.026000,0.031000,-0.995000,3,19,1,19,37.5417959,127.0795530,43.186,0.763000,1.996000,-0.008000,-0.003000,-0.006000,0.124000,1000,1000,1000,1000,1000.000000,0,0,0,0,1,0,0,0,0,793,0.000000,0,0.000000,0.000000,0.000000,0.000000,0.000000,0.000000,0.000000,0.000000,0.000000,0.000000,0.000000,0.000000,0.000000,0.000000,0.000000,0.000000,0.000000,0.000000,0.000000,0.000000,0.000000,0.000000,0.000000,0.000000,0.000000,0.000000,0.000000,0.000000,0.000000,0.000000,0.000000,9.765680,0.000000,0.000000,0.000000,0.000000,0.000000,0.000000,0.000000,0.000000,0.000000,0.000000,0.000000,0.000000,0.000000,0.000000,0.000000,0.000000,0.000000,0.000000,0.000000,0.000000,0.000000,0.000000,0.000000,0.000000,0.000000,0.000000,0.000000,0.000000,0.000000,0.000000,0.000000,0.000000,0.000000,0,0,0,0,0,0.000000,0,0,0,1,0,0,0.000000,0.000000,0.000000,0.000000,0.000000,0.000000,0,0.995822,0.000000,0.000000,0.000000,0.000000,0.000000,0.000000,-1.823455,1.544855,1.823455,-1.544855,0.000000,0,0
12524,0.404212,0.005900,0.020001,-0.914428,0.000000,0.000000,0.000000,0.026000,0.030000,-0.995000,3,19,1,19,37.5417959,127.0795530,43.186,0.763000,1.996000,-0.008000,-0.003000,-0.006000,0.124000,1000,1000,1000,1000,1000.000000,0,0,0,0,1,0,0,0,0,817,0.000000,0,0.000000,0.000000,0.000000,0.000000,0.000000,0.000000,0.000000,0.000000,0.000000,0.000000,0.000000,0.000000,0.000000,0.000000,0.000000,0.000000,0.000000,0.000000,0.000000,0.000000,0.000000,0.000000,0.000000,0.000000,0.000000,0.000000,0.000000,0.000000,0.000000,0.000000,0.000000,9.765380,0.000000,0.000000,0.000000,0.000000,0.000000,0.000000,0.000000,0.000000,0.000000,0.000000,0.000000,0.000000,0.000000,0.000000,0.000000,0.000000,0.000000,0.000000,0.000000,0.000000,0.000000,0.000000,0.000000,0.000000,0.000000,0.000000,0.000000,0.000000,0.000000,0.000000,0.000000,0.000000,0.000000,0,0,0,0,0,0.000000,0,0,0,1,0,0,0.000000,0.000000,0.000000,0.000000,0.000000,0.000000,0,0.995792,0.000000,0.000000,0.000000,0.000000,0.000000,0.000000,-1.823455,1.544855,1.823455,-1.544855,0.000000,0,0
12548,0.404212,0.005900,0.020001,-0.914428,0.000000,0.000000,0.000000,0.027000,0.032000,-0.995000,3,19,1,19,37.5417959,127.0795530,43.186,0.763000,1.996000,-0.008000,-0.003000,-0.006000,0.124000,1000,1000,1000,1000,1000.000000,0,0,0,0,1,0,0,0,0,841,0.000000,0,0.000000,0.000000,0.000000,0.000000,0.000000,0.000000,0.000000,0.000000,0.000000,0.000000,0.000000,0.000000,0.000000,0.000000,0.000000,0.000000,0.000000,0.000000,0.000000,0.000000,0.000000,0.000000,0.000000,0.000000,0.000000,0.000000,0.000000,0.000000,0.000000,0.000000,0.000000,9.766252,0.000000,0.000000,0.000000,0.000000,0.000000,0.000000,0.000000,0.000000,0.000000,0.000000,0.000000,0.000000,0.000000,0.000000,0.000000,0.000000,0.000000,0.000000,0.000000,0.000000,0.000000,0.000000,0.000000,0.000000,0.000000,0.000000,0.000000,0.000000,0.000000,0.000000,0.000000,0.000000,0.000000,0,0,0,0,0,0.000000,0,0,0,1,0,0,0.000000,0.000000,0.000000,0.000000,0.000000,0.000000,0,0.995880,0.000000,0.000000,0.000000,0.000000,0.000000,0.000000,-1.823455,1.544855,1.823455,-1.544855,0.000000,0,0
12604,0.404213,0.005900,0.019901,-0.914429,0.000000,0.000000,0.000000,0.026000,0.031000,-0.996000,3,19,1,19,37.5417959,127.0795528,43.152,0.758000,1.982000,0.010000,0.009000,-0.028000,0.126000,1000,1000,1000,1000,1000.000000,0,0,0,0,1,0,0,0,0,897,0.000000,0,0.000000,0.000000,0.000000,0.000000,0.000000,0.000000,0.000000,0.000000,0.000000,0.000000,0.000000,0.000000,0.000000,0.000000,0.000000,0.000000,0.000000,0.000000,0.000000,0.000000,0.000000,0.000000,0.000000,0.000000,0.000000,0.000000,0.000000,0.000000,0.000000,0.000000,0.000000,9.775478,0.000000,0.000000,0.000000,0.000000,0.000000,0.000000,0.000000,0.000000,0.000000,0.000000,0.000000,0.000000,0.000000,0.000000,0.000000,0.000000,0.000000,0.000000,0.000000,0.000000,0.000000,0.000000,0.000000,0.000000,0.000000,0.000000,0.000000,0.000000,0.000000,0.000000,0.000000,0.000000,0.000000,0,0,0,0,0,0.000000,0,0,0,1,0,0,0.000000,0.000000,0.000000,0.000000,0.000000,0.000000,0,0.996821,0.000000,0.000000,0.000000,0.000000,0.000000,0.000000,-1.812971,1.540228,1.812971,-1.540228,0.082631,0,0
12631,0.404213,0.005900,0.019901,-0.914429,0.000000,0.000000,0.000000,0.023000,0.032000,-0.997000,3,19,1,19,37.5417959,127.0795528,43.152,0.758000,1.982000,0.010000,0.009000,-0.028000,0.126000,1000,1000,1000,1000,1000.000000,0,0,0,0,1,0,0,0,0,924,0.000000,0,0.000000,0.000000,0.000000,0.000000,0.000000,0.000000,0.000000,0.000000,0.000000,0.000000,0.000000,0.000000,0.000000,0.000000,0.000000,0.000000,0.000000,0.000000,0.000000,0.000000,0.000000,0.000000,0.000000,0.000000,0.000000,0.000000,0.000000,0.000000,0.000000,0.000000,0.000000,9.784865,0.000000,0.000000,0.000000,0.000000,0.000000,0.000000,0.000000,0.000000,0.000000,0.000000,0.000000,0.000000,0.000000,0.000000,0.000000,0.000000,0.000000,0.000000,0.000000,0.000000,0.000000,0.000000,0.000000,0.000000,0.000000,0.000000,0.000000,0.000000,0.000000,0.000000,0.000000,0.000000,0.000000,0,0,0,0,0,0.000000,0,0,0,1,0,0,0.000000,0.000000,0.000000,0.000000,0.000000,0.000000,0,0.997779,0.000000,0.000000,0.000000,0.000000,0.000000,0.000000,-1.812971,1.540228,1.812971,-1.540228,0.000000,0,0
12675,0.404213,0.005900,0.019901,-0.914429,0.000000,0.000000,0.000000,0.025000,0.031000,-0.996000,3,19,1,19,37.5417959,127.0795528,43.152,0.758000,1.982000,0.010000,0.009000,-0.028000,0.126000,1000,1000,1000,1000,1000.000000,0,0,0,0,1,0,0,0,0,968,0.000000,0,0.000000,0.000000,0.000000,0.000000,0.000000,0.000000,0.000000,0.000000,0.000000,0.000000,0.000000,0.000000,0.000000,0.000000,0.000000,0.000000,0.000000,0.000000,0.000000,0.000000,0.000000,0.000000,0.000000,0.000000,0.000000,0.000000,0.000000,0.000000,0.000000,0.000000,0.000000,9.775228,0.000000,0.000000,0.000000,0.000000,0.000000,0.000000,0.000000,0.000000,0.000000,0.000000,0.000000,0.000000,0.000000,0.000000,0.000000,0.000000,0.000000,0.000000,0.000000,0.000000,0.000000,0.000000,0.000000,0.000000,0.000000,0.000000,0.000000,0.000000,0.000000,0.000000,0.000000,0.000000,0.000000,0,0,0,0,0,0.000000,0,0,0,1,0,0,0.000000,0.000000,0.000000,0.000000,0.000000,0.000000,0,0.996796,0.000000,0.000000,0.000000,0.000000,0.000000,0.000000,-1.812971,1.540228,1.812971,-1.540228,0.000000,0,0
12719,0.404213,0.005900,0.019901,-0.914429,0.000000,0.000000,0.000000,0.027000,0.030000,-0.996000,3,19,1,19,37.5417959,127.0795525,43.082,0.753000,1.967000,-0.011000,-0.005000,0.005000,0.090000,1000,1000,1000,1000,1000.000000,0,0,0,0,1,0,0,0,0,1012,0.000000,0,0.000000,0.000000,0.000000,0.000000,0.000000,0.000000,0.000000,0.000000,0.000000,0.000000,0.000000,0.000000,0.000000,0.000000,0.000000,0.000000,0.000000,0.000000,0.000000,0.000000,0.000000,0.000000,0.000000,0.000000,0.000000,0.000000,0.000000,0.000000,0.000000,0.000000,0.000000,9.775439,0.000000,0.000000,0.000000,0.000000,0.000000,0.000000,0.000000,0.000000,0.000000,0.000000,0.000000,0.000000,0.000000,0.000000,0.000000,0.000000,0.000000,0.000000,0.000000,0.000000,0.000000,0.000000,0.000000,0.000000,0.000000,0.000000,0.000000,0.000000,0.000000,0.000000,0.000000,0.000000,0.000000,0,0,0,0,0,0.000000,0,0,0,1,0,0,0.000000,0.000000,0.000000,0.000000,0.000000,0.000000,0,0.996817,0.000000,0.000000,0.000000,0.000000,0.000000,0.000000,-1.812971,1.540228,1.812971,-1.540228,0.000000,0,0
12743,0.404213,0.005900,0.019901,-0.914429,0.000000,0.000000,0.000000,0.027000,0.031000,-0.995000,3,19,1,19,37.5417959,127.0795525,43.082,0.753000,1.967000,-0.011000,-0.005000,0.005000,0.090000,1000,1000,1000,1000,1000.000000,0,0,0,0,1,0,0,0,0,1036,0.000000,0,0.000000,0.000000,0.000000,0.000000,0.000000,0.000000,0.000000,0.000000,0.000000,0.000000,0.000000,0.000000,0.000000,0.000000,0.000000,0.000000,0.000000,0.000000,0.000000,0.000000,0.000000,0.000000,0.000000,0.000000,0.000000,0.000000,0.000000,0.000000,0.000000,0.000000,0.000000,9.765941,0.000000,0.000000,0.000000,0.000000,0.000000,0.000000,0.000000,0.000000,0.000000,0.000000,0.000000,0.000000,0.000000,0.000000,0.000000,0.000000,0.000000,0.000000,0.000000,0.000000,0.000000,0.000000,0.000000,0.000000,0.000000,0.000000,0.000000,0.000000,0.000000,0.000000,0.000000,0.000000,0.000000,0,0,0,0,0,0.000000,0,0,0,1,0,0,0.000000,0.000000,0.000000,0.000000,0.000000,0.000000,0,0.995849,0.000000,0.000000,0.000000,0.000000,0.000000,0.000000,-1.812971,1.540228,1.812971,-1.540228,0.000000,0,0
12793,0.404213,0.005900,0.019901,-0.914429,0.000000,0.000000,0.000000,0.028000,0.029000,-0.995000,3,19,1,19,37.5417959,127.0795525,43.082,0.753000,1.967000,-0.011000,-0.005000,0.005000,0.090000,1000,1000,1000,1000,1000.000000,0,0,0,0,1,0,0,0,0,1085,0.000000,0,0.000000,0.000000,0.000000,0.000000,0.000000,0.000000,0.000000,0.000000,0.000000,0.000000,0.000000,0.000000,0.000000,0.000000,0.000000,0.000000,0.000000,0.000000,0.000000,0.000000,0.000000,0.000000,0.000000,0.000000,0.000000,0.000000,0.000000,0.000000,0.000000,0.000000,0.000000,9.765621,0.000000,0.000000,0.000000,0.000000,0.000000,0.000000,0.000000,0.000000,0.000000,0.000000,0.000000,0.000000,0.000000,0.000000,0.000000,0.000000,0.000000,0.000000,0.000000,0.000000,0.000000,0.000000,0.000000,0.000000,0.000000,0.000000,0.000000,0.000000,0.000000,0.000000,0.000000,0.000000,0.000000,0,0,0,0,0,0.000000,0,0,0,1,0,0,0.000000,0.000000,0.000000,0.000000,0.000000,0.000000,0,0.995816,0.000000,0.000000,0.000000,0.000000,0.000000,0.000000,-1.812971,1.540228,1.812971,-1.540228,0.000000,0,0
12836,0.404212,0.005900,0.020001,-0.914428,0.000000,0.000000,0.000000,0.025000,0.030000,-0.997000,3,19,1,19,37.5417959,127.0795523,43.039,0.748000,1.952000,0.001000,0.018000,-0.024000,0.139000,1000,1000,1000,1000,1000.000000,0,0,0,0,1,0,0,0,0,1129,0.000000,0,0.000000,0.000000,0.000000,0.000000,0.000000,0.000000,0.000000,0.000000,0.000000,0.000000,0.000000,0.000000,0.000000,0.000000,0.000000,0.000000,0.000000,0.000000,0.000000,0.000000,0.000000,0.000000,0.000000,0.000000,0.000000,0.000000,0.000000,0.000000,0.000000,0.000000,0.000000,9.784727,0.000000,0.000000,0.000000,0.000000,0.000000,0.000000,0.000000,0.000000,0.000000,0.000000,0.000000,0.000000,0.000000,0.000000,0.000000,0.000000,0.000000,0.000000,0.000000,0.000000,0.000000,0.000000,0.000000,0.000000,0.000000,0.000000,0.000000,0.000000,0.000000,0.000000,0.000000,0.000000,0.000000,0,0,0,0,0,0.000000,0,0,0,1,0,0,0.000000,0.000000,0.000000,0.000000,0.000000,0.000000,0,0.997764,0.000000,0.000000,0.000000,0.000000,0.000000,0.000000,-1.823455,1.544855,1.823455,-1.544855,-0.107613,0,0
12864,0.404213,0.005900,0.019901,-0.914429,0.000000,0.000000,0.000000,0.024000,0.034000,-1.001000,3,19,1,19,37.5417959,127.0795523,43.039,0.748000,1.952000,0.001000,0.018000,-0.024000,0.139000,1000,1000,1000,1000,1000.000000,0,0,0,0,1,0,0,0,0,1157,0.000000,0,0.000000,0.000000,0.000000,0.000000,0.000000,0.000000,0.000000,0.000000,0.000000,0.000000,0.000000,0.000000,0.000000,0.000000,0.000000,0.000000,0.000000,0.000000,0.000000,0.000000,0.000000,0.000000,0.000000,0.000000,0.000000,0.000000,0.000000,0.000000,0.000000,0.000000,0.000000,9.824938,0.000000,0.000000,0.000000,0.000000,0.000000,0.000000,0.000000,0.000000,0.000000,0.000000,0.000000,0.000000,0.000000,0.000000,0.000000,0.000000,0.000000,0.000000,0.000000,0.000000,0.000000,0.000000,0.000000,0.000000,0.000000,0.000000,0.000000,0.000000,0.000000,0.000000,0.000000,0.000000,0.000000,0,0,0,0,0,0.000000,0,0,0,1,0,0,0.000000,0.000000,0.000000,0.000000,0.000000,0.000000,0,1.001865,0.000000,0.000000,0.000000,0.000000,0.000000,0.000000,-1.812971,1.540228,1.812971,-1.540228,0.165262,0,0
12927,0.404213,0.005900,0.019901,-0.914429,0.000000,0.000000,0.000000,0.026000,0.030000,-0.997000,3,19,1,19,37.5417959,127.0795523,43.039,0.748000,1.952000,0.001000,0.018000,-0.024000,0.139000,1000,1000,1000,1000,1000.000000,0,0,0,0,1,0,0,0,0,1220,0.000000,0,0.000000,0.000000,0.000000,0.000000,0.000000,0.000000,0.000000,0.000000,0.000000,0.000000,0.000000,0.000000,0.000000,0.000000,0.000000,0.000000,0.000000,0.000000,0.000000,0.000000,0.000000,0.000000,0.000000,0.000000,0.000000,0.000000,0.000000,0.000000,0.000000,0.000000,0.000000,9.784978,0.000000,0.000000,0.000000,0.000000,0.000000,0.000000,0.000000,0.000000,0.000000,0.000000,0.000000,0.000000,0.000000,0.000000,0.000000,0.000000,0.000000,0.000000,0.000000,0.000000,0.000000,0.000000,0.000000,0.000000,0.000000,0.000000,0.000000,0.000000,0.000000,0.000000,0.000000,0.000000,0.000000,0,0,0,0,0,0.000000,0,0,0,1,0,0,0.000000,0.000000,0.000000,0.000000,0.000000,0.000000,0,0.997790,0.000000,0.000000,0.000000,0.000000,0.000000,0.000000,-1.812971,1.540228,1.812971,-1.540228,0.000000,0,0
12951,0.404213,0.005900,0.019901,-0.914429,0.000000,0.000000,0.000000,0.027000,0.032000,-0.995000,3,19,1,19,37.5417959,127.0795523,43.039,0.748000,1.952000,0.001000,0.018000,-0.024000,0.139000,1000,1000,1000,1000,1000.000000,0,0,0,0,1,0,0,0,0,1244,0.000000,0,0.000000,0.000000,0.000000,0.000000,0.000000,0.000000,0.000000,0.000000,0.000000,0.000000,0.000000,0.000000,0.000000,0.000000,0.000000,0.000000,0.000000,0.000000,0.000000,0.000000,0.000000,0.000000,0.000000,0.000000,0.000000,0.000000,0.000000,0.000000,0.000000,0.000000,0.000000,9.766252,0.000000,0.000000,0.000000,0.000000,0.000000,0.000000,0.000000,0.000000,0.000000,0.000000,0.000000,0.000000,0.000000,0.000000,0.000000,0.000000,0.000000,0.000000,0.000000,0.000000,0.000000,0.000000,0.000000,0.000000,0.000000,0.000000,0.000000,0.000000,0.000000,0.000000,0.000000,0.000000,0.000000,0,0,0,0,0,0.000000,0,0,0,1,0,0,0.000000,0.000000,0.000000,0.000000,0.000000,0.000000,0,0.995880,0.000000,0.000000,0.000000,0.000000,0.000000,0.000000,-1.812971,1.540228,1.812971,-1.540228,0.000000,0,0
12995,0.404213,0.005900,0.019901,-0.914429,0.000000,0.000000,0.000000,0.027000,0.032000,-0.997000,3,19,1,19,37.5417960,127.0795521,42.989,0.743000,1.939000,-0.009000,0.001000,-0.013000,0.144000,1000,1000,1000,1000,1000.000000,0,0,0,0,1,0,0,0,0,1288,0.000000,0,0.000000,0.000000,0.000000,0.000000,0.000000,0.000000,0.000000,0.000000,0.000000,0.000000,0.000000,0.000000,0.000000,0.000000,0.000000,0.000000,0.000000,0.000000,0.000000,0.000000,0.000000,0.000000,0.000000,0.000000,0.000000,0.000000,0.000000,0.000000,0.000000,0.000000,0.000000,9.785848,0.000000,0.000000,0.000000,0.000000,0.000000,0.000000,0.000000,0.000000,0.000000,0.000000,0.000000,0.000000,0.000000,0.000000,0.000000,0.000000,0.000000,0.000000,0.000000,0.000000,0.000000,0.000000,0.000000,0.000000,0.000000,0.000000,0.000000,0.000000,0.000000,0.000000,0.000000,0.000000,0.000000,0,0,0,0,0,0.000000,0,0,0,1,0,0,0.000000,0.000000,0.000000,0.000000,0.000000,0.000000,0,0.997879,0.000000,0.000000,0.000000,0.000000,0.000000,0.000000,-1.812971,1.540228,1.812971,-1.540228,0.000000,0,0
13043,0.404213,0.005900,0.019901,-0.914429,0.000000,0.000000,0.000000,0.025000,0.033000,-0.996000,3,19,1,19,37.5417960,127.0795521,42.989,0.743000,1.939000,-0.009000,0.001000,-0.013000,0.144000,1000,1000,1000,1000,1000.000000,0,0,0,0,1,0,0,0,0,1335,0.000000,0,0.000000,0.000000,0.000000,0.000000,0.000000,0.000000,0.000000,0.000000,0.000000,0.000000,0.000000,0.000000,0.000000,0.000000,0.000000,0.000000,0.000000,0.000000,0.000000,0.000000,0.000000,0.000000,0.000000,0.000000,0.000000,0.000000,0.000000,0.000000,0.000000,0.000000,0.000000,9.775858,0.000000,0.000000,0.000000,0.000000,0.000000,0.000000,0.000000,0.000000,0.000000,0.000000,0.000000,0.000000,0.000000,0.000000,0.000000,0.000000,0.000000,0.000000,0.000000,0.000000,0.000000,0.000000,0.000000,0.000000,0.000000,0.000000,0.000000,0.000000,0.000000,0.000000,0.000000,0.000000,0.000000,0,0,0,0,0,0.000000,0,0,0,1,0,0,0.000000,0.000000,0.000000,0.000000,0.000000,0.000000,0,0.996860,0.000000,0.000000,0.000000,0.000000,0.000000,0.000000,-1.812971,1.540228,1.812971,-1.540228,0.000000,0,0
13070,0.404213,0.005900,0.019901,-0.914429,0.000000,0.000000,0.000000,0.026000,0.030000,-0.996000,3,19,1,19,37.5417960,127.0795521,42.989,0.743000,1.939000,-0.009000,0.001000,-0.013000,0.144000,1000,1000,1000,1000,1000.000000,0,0,0,0,1,0,0,0,0,1363,0.000000,0,0.000000,0.000000,0.000000,0.000000,0.000000,0.000000,0.000000,0.000000,0.000000,0.000000,0.000000,0.000000,0.000000,0.000000,0.000000,0.000000,0.000000,0.000000,0.000000,0.000000,0.000000,0.000000,0.000000,0.000000,0.000000,0.000000,0.000000,0.000000,0.000000,0.000000,0.000000,9.775179,0.000000,0.000000,0.000000,0.000000,0.000000,0.000000,0.000000,0.000000,0.000000,0.000000,0.000000,0.000000,0.000000,0.000000,0.000000,0.000000,0.000000,0.000000,0.000000,0.000000,0.000000,0.000000,0.000000,0.000000,0.000000,0.000000,0.000000,0.000000,0.000000,0.000000,0.000000,0.000000,0.000000,0,0,0,0,0,0.000000,0,0,0,1,0,0,0.000000,0.000000,0.000000,0.000000,0.000000,0.000000,0,0.996791,0.000000,0.000000,0.000000,0.000000,0.000000,0.000000,-1.812971,1.540228,1.812971,-1.540228,0.000000,0,0
13114,0.404213,0.005900,0.019901,-0.914429,0.000000,0.000000,0.000000,0.027000,0.030000,-0.997000,3,19,1,19,37.5417961,127.0795518,42.933,0.738000,1.925000,0.007000,-0.002000,-0.007000,0.091000,1000,1000,1000,1000,1000.000000,0,0,0,0,1,0,0,0,0,1407,0.000000,0,0.000000,0.000000,0.000000,0.000000,0.000000,0.000000,0.000000,0.000000,0.000000,0.000000,0.000000,0.000000,0.000000,0.000000,0.000000,0.000000,0.000000,0.000000,0.000000,0.000000,0.000000,0.000000,0.000000,0.000000,0.000000,0.000000,0.000000,0.000000,0.000000,0.000000,0.000000,9.785238,0.000000,0.000000,0.000000,0.000000,0.000000,0.000000,0.000000,0.000000,0.000000,0.000000,0.000000,0.000000,0.000000,0.000000,0.000000,0.000000,0.000000,0.000000,0.000000,0.000000,0.000000,0.000000,0.000000,0.000000,0.000000,0.000000,0.000000,0.000000,0.000000,0.000000,0.000000,0.000000,0.000000,0,0,0,0,0,0.000000,0,0,0,1,0,0,0.000000,0.000000,0.000000,0.000000,0.000000,0.000000,0,0.997817,0.000000,0.000000,0.000000,0.000000,0.000000,0.000000,-1.812971,1.540228,1.812971,-1.540228,0.000000,0,0
13158,0.404213,0.005900,0.019901,-0.914429,0.000000,0.000000,0.000000,0.021000,0.024000,-0.999000,3,19,1,19,37.5417961,127.0795518,42.933,0.738000,1.925000,0.007000,-0.002000,-0.007000,0.091000,1000,1000,1000,1000,1000.000000,0,0,0,0,1,0,0,0,0,1451,0.000000,0,0.000000,0.000000,0.000000,0.000000,0.000000,0.000000,0.000000,0.000000,0.000000,0.000000,0.000000,0.000000,0.000000,0.000000,0.000000,0.000000,0.000000,0.000000,0.000000,0.000000,0.000000,0.000000,0.000000,0.000000,0.000000,0.000000,0.000000,0.000000,0.000000,0.000000,0.000000,9.801834,0.000000,0.000000,0.000000,0.000000,0.000000,0.000000,0.000000,0.000000,0.000000,0.000000,0.000000,0.000000,0.000000,0.000000,0.000000,0.000000,0.000000,0.000000,0.000000,0.000000,0.000000,0.000000,0.000000,0.000000,0.000000,0.000000,0.000000,0.000000,0.000000,0.000000,0.000000,0.000000,0.000000,0,0,0,0,0,0.000000,0,0,0,1,0,0,0.000000,0.000000,0.000000,0.000000,0.000000,0.000000,0,0.999509,0.000000,0.000000,0.000000,0.000000,0.000000,0.000000,-1.812971,1.540228,1.812971,-1.540228,0.000000,0,0
13327,0.404212,0.005900,0.020001,-0.914428,0.000000,0.000000,0.000000,0.026000,0.033000,-0.994000,3,19,1,19,37.5417961,127.0795516,42.907,0.733000,1.911000,-0.001000,0.015000,-0.006000,0.132000,1000,1000,1000,1000,1000.000000,0,0,0,0,1,0,0,0,0,1620,0.000000,0,0.000000,0.000000,0.000000,0.000000,0.000000,0.000000,0.000000,0.000000,0.000000,0.000000,0.000000,0.000000,0.000000,0.000000,0.000000,0.000000,0.000000,0.000000,0.000000,0.000000,0.000000,0.000000,0.000000,0.000000,0.000000,0.000000,0.000000,0.000000,0.000000,0.000000,0.000000,9.756514,0.000000,0.000000,0.000000,0.000000,0.000000,0.000000,0.000000,0.000000,0.000000,0.000000,0.000000,0.000000,0.000000,0.000000,0.000000,0.000000,0.000000,0.000000,0.000000,0.000000,0.000000,0.000000,0.000000,0.000000,0.000000,0.000000,0.000000,0.000000,0.000000,0.000000,0.000000,0.000000,0.000000,0,0,0,0,0,0.000000,0,0,0,1,0,0,0.000000,0.000000,0.000000,0.000000,0.000000,0.000000,0,0.994887,0.000000,0.000000,0.000000,0.000000,0.000000,0.000000,-1.823455,1.544855,1.823455,-1.544855,-0.027381,0,0
13371,0.404212,0.005900,0.020001,-0.914428,0.000000,0.000000,0.000000,0.024000,0.034000,-0.994000,3,19,1,19,37.5417961,127.0795514,42.868,0.728000,1.899000,0.009000,-0.024000,0.002000,0.126000,1000,1000,1000,1000,1000.000000,0,0,0,0,1,0,0,0,0,1664,0.000000,0,0.000000,0.000000,0.000000,0.000000,0.000000,0.000000,0.000000,0.000000,0.000000,0.000000,0.000000,0.000000,0.000000,0.000000,0.000000,0.000000,0.000000,0.000000,0.000000,0.000000,0.000000,0.000000,0.000000,0.000000,0.000000,0.000000,0.000000,0.000000,0.000000,0.000000,0.000000,9.756351,0.000000,0.000000,0.000000,0.000000,0.000000,0.000000,0.000000,0.000000,0.000000,0.000000,0.000000,0.000000,0.000000,0.000000,0.000000,0.000000,0.000000,0.000000,0.000000,0.000000,0.000000,0.000000,0.000000,0.000000,0.000000,0.000000,0.000000,0.000000,0.000000,0.000000,0.000000,0.000000,0.000000,0,0,0,0,0,0.000000,0,0,0,1,0,0,0.000000,0.000000,0.000000,0.000000,0.000000,0.000000,0,0.994871,0.000000,0.000000,0.000000,0.000000,0.000000,0.000000,-1.823455,1.544855,1.823455,-1.544855,0.000000,0,0
13415,0.404212,0.006000,0.020001,-0.914427,0.000000,0.000000,0.000000,0.028000,0.031000,-0.997000,3,19,1,19,37.5417961,127.0795514,42.868,0.728000,1.899000,0.009000,-0.024000,0.002000,0.126000,1000,1000,1000,1000,1000.000000,0,0,0,0,1,0,0,0,0,1708,0.000000,0,0.000000,0.000000,0.000000,0.000000,0.000000,0.000000,0.000000,0.000000,0.000000,0.000000,0.000000,0.000000,0.000000,0.000000,0.000000,0.000000,0.000000,0.000000,0.000000,0.000000,0.000000,0.000000,0.000000,0.000000,0.000000,0.000000,0.000000,0.000000,0.000000,0.000000,0.000000,9.785809,0.000000,0.000000,0.000000,0.000000,0.000000,0.000000,0.000000,0.000000,0.000000,0.000000,0.000000,0.000000,0.000000,0.000000,0.000000,0.000000,0.000000,0.000000,0.000000,0.000000,0.000000,0.000000,0.000000,0.000000,0.000000,0.000000,0.000000,0.000000,0.000000,0.000000,0.000000,0.000000,0.000000,0,0,0,0,0,0.000000,0,0,0,1,0,0,0.000000,0.000000,0.000000,0.000000,0.000000,0.000000,0,0.997875,0.000000,0.000000,0.000000,0.000000,0.000000,0.000000,-1.818826,1.555336,1.818826,-1.555336,-0.238199,0,0
13464,0.404212,0.005900,0.020001,-0.914428,0.000000,0.000000,0.000000,0.024000,0.032000,-0.996000,3,19,1,19,37.5417961,127.0795512,42.831,0.724000,1.887000,-0.005000,-0.004000,0.000000,0.100000,1000,1000,1000,1000,1000.000000,0,0,0,0,1,0,0,0,0,1757,0.000000,0,0.000000,0.000000,0.000000,0.000000,0.000000,0.000000,0.000000,0.000000,0.000000,0.000000,0.000000,0.000000,0.000000,0.000000,0.000000,0.000000,0.000000,0.000000,0.000000,0.000000,0.000000,0.000000,0.000000,0.000000,0.000000,0.000000,0.000000,0.000000,0.000000,0.000000,0.000000,9.775297,0.000000,0.000000,0.000000,0.000000,0.000000,0.000000,0.000000,0.000000,0.000000,0.000000,0.000000,0.000000,0.000000,0.000000,0.000000,0.000000,0.000000,0.000000,0.000000,0.000000,0.000000,0.000000,0.000000,0.000000,0.000000,0.000000,0.000000,0.000000,0.000000,0.000000,0.000000,0.000000,0.000000,0,0,0,0,0,0.000000,0,0,0,1,0,0,0.000000,0.000000,0.000000,0.000000,0.000000,0.000000,0,0.996803,0.000000,0.000000,0.000000,0.000000,0.000000,0.000000,-1.823455,1.544855,1.823455,-1.544855,0.213893,0,0
13488,0.404212,0.005900,0.020001,-0.914428,0.000000,0.000000,0.000000,0.026000,0.031000,-0.997000,3,19,1,19,37.5417961,127.0795512,42.831,0.724000,1.887000,-0.005000,-0.004000,0.000000,0.100000,1000,1000,1000,1000,1000.000000,0,0,0,0,1,0,0,0,0,1781,0.000000,0,0.000000,0.000000,0.000000,0.000000,0.000000,0.000000,0.000000,0.000000,0.000000,0.000000,0.000000,0.000000,0.000000,0.000000,0.000000,0.000000,0.000000,0.000000,0.000000,0.000000,0.000000,0.000000,0.000000,0.000000,0.000000,0.000000,0.000000,0.000000,0.000000,0.000000,0.000000,9.785277,0.000000,0.000000,0.000000,0.000000,0.000000,0.000000,0.000000,0.000000,0.000000,0.000000,0.000000,0.000000,0.000000,0.000000,0.000000,0.000000,0.000000,0.000000,0.000000,0.000000,0.000000,0.000000,0.000000,0.000000,0.000000,0.000000,0.000000,0.000000,0.000000,0.000000,0.000000,0.000000,0.000000,0,0,0,0,0,0.000000,0,0,0,1,0,0,0.000000,0.000000,0.000000,0.000000,0.000000,0.000000,0,0.997821,0.000000,0.000000,0.000000,0.000000,0.000000,0.000000,-1.823455,1.544855,1.823455,-1.544855,0.000000,0,0
13535,0.404212,0.006000,0.020001,-0.914427,0.000000,0.000000,0.000000,0.027000,0.032000,-0.996000,3,19,1,19,37.5417961,127.0795512,42.831,0.724000,1.887000,-0.005000,-0.004000,0.000000,0.100000,1000,1000,1000,1000,1000.000000,0,0,0,0,1,0,0,0,0,1828,0.000000,0,0.000000,0.000000,0.000000,0.000000,0.000000,0.000000,0.000000,0.000000,0.000000,0.000000,0.000000,0.000000,0.000000,0.000000,0.000000,0.000000,0.000000,0.000000,0.000000,0.000000,0.000000,0.000000,0.000000,0.000000,0.000000,0.000000,0.000000,0.000000,0.000000,0.000000,0.000000,9.776050,0.000000,0.000000,0.000000,0.000000,0.000000,0.000000,0.000000,0.000000,0.000000,0.000000,0.000000,0.000000,0.000000,0.000000,0.000000,0.000000,0.000000,0.000000,0.000000,0.000000,0.000000,0.000000,0.000000,0.000000,0.000000,0.000000,0.000000,0.000000,0.000000,0.000000,0.000000,0.000000,0.000000,0,0,0,0,0,0.000000,0,0,0,1,0,0,0.000000,0.000000,0.000000,0.000000,0.000000,0.000000,0,0.996880,0.000000,0.000000,0.000000,0.000000,0.000000,0.000000,-1.818826,1.555336,1.818826,-1.555336,-0.222995,0,0
13582,0.404212,0.005900,0.020001,-0.914428,0.000000,0.000000,0.000000,0.027000,0.031000,-0.997000,3,19,1,19,37.5417961,127.0795511,42.812,0.720000,1.876000,-0.005000,0.009000,-0.009000,0.143000,1000,1000,1000,1000,1000.000000,0,0,0,0,1,0,0,0,0,1875,0.000000,0,0.000000,0.000000,0.000000,0.000000,0.000000,0.000000,0.000000,0.000000,0.000000,0.000000,0.000000,0.000000,0.000000,0.000000,0.000000,0.000000,0.000000,0.000000,0.000000,0.000000,0.000000,0.000000,0.000000,0.000000,0.000000,0.000000,0.000000,0.000000,0.000000,0.000000,0.000000,9.785538,0.000000,0.000000,0.000000,0.000000,0.000000,0.000000,0.000000,0.000000,0.000000,0.000000,0.000000,0.000000,0.000000,0.000000,0.000000,0.000000,0.000000,0.000000,0.000000,0.000000,0.000000,0.000000,0.000000,0.000000,0.000000,0.000000,0.000000,0.000000,0.000000,0.000000,0.000000,0.000000,0.000000,0,0,0,0,0,0.000000,0,0,0,1,0,0,0.000000,0.000000,0.000000,0.000000,0.000000,0.000000,0,0.997847,0.000000,0.000000,0.000000,0.000000,0.000000,0.000000,-1.823455,1.544855,1.823455,-1.544855,0.222995,0,0
13668,0.404212,0.005900,0.020001,-0.914428,0.000000,0.000000,0.000000,0.028000,0.033000,-0.996000,3,19,1,19,37.5417961,127.0795511,42.812,0.720000,1.876000,-0.005000,0.009000,-0.009000,0.143000,1000,1000,1000,1000,1000.000000,0,0,0,0,1,0,0,0,0,1961,0.000000,0,0.000000,0.000000,0.000000,0.000000,0.000000,0.000000,0.000000,0.000000,0.000000,0.000000,0.000000,0.000000,0.000000,0.000000,0.000000,0.000000,0.000000,0.000000,0.000000,0.000000,0.000000,0.000000,0.000000,0.000000,0.000000,0.000000,0.000000,0.000000,0.000000,0.000000,0.000000,9.776640,0.000000,0.000000,0.000000,0.000000,0.000000,0.000000,0.000000,0.000000,0.000000,0.000000,0.000000,0.000000,0.000000,0.000000,0.000000,0.000000,0.000000,0.000000,0.000000,0.000000,0.000000,0.000000,0.000000,0.000000,0.000000,0.000000,0.000000,0.000000,0.000000,0.000000,0.000000,0.000000,0.000000,0,0,0,0,0,0.000000,0,0,0,1,0,0,0.000000,0.000000,0.000000,0.000000,0.000000,0.000000,0,0.996940,0.000000,0.000000,0.000000,0.000000,0.000000,0.000000,-1.823455,1.544855,1.823455,-1.544855,0.000000,0,0
13712,0.404212,0.005900,0.020001,-0.914428,0.000000,0.000000,0.000000,0.026000,0.030000,-0.997000,3,19,1,19,37.5417962,127.0795509,42.776,0.716000,1.866000,0.026000,-0.002000,-0.017000,0.089000,1000,1000,1000,1000,1000.000000,0,0,0,0,1,0,0,0,0,2005,0.000000,0,0.000000,0.000000,0.000000,0.000000,0.000000,0.000000,0.000000,0.000000,0.000000,0.000000,0.000000,0.000000,0.000000,0.000000,0.000000,0.000000,0.000000,0.000000,0.000000,0.000000,0.000000,0.000000,0.000000,0.000000,0.000000,0.000000,0.000000,0.000000,0.000000,0.000000,0.000000,9.784978,0.000000,0.000000,0.000000,0.000000,0.000000,0.000000,0.000000,0.000000,0.000000,0.000000,0.000000,0.000000,0.000000,0.000000,0.000000,0.000000,0.000000,0.000000,0.000000,0.000000,0.000000,0.000000,0.000000,0.000000,0.000000,0.000000,0.000000,0.000000,0.000000,0.000000,0.000000,0.000000,0.000000,0,0,0,0,0,0.000000,0,0,0,1,0,0,0.000000,0.000000,0.000000,0.000000,0.000000,0.000000,0,0.997790,0.000000,0.000000,0.000000,0.000000,0.000000,0.000000,-1.823455,1.544855,1.823455,-1.544855,0.000000,0,0
13756,0.404212,0.005900,0.020001,-0.914428,0.000000,0.000000,0.000000,0.024000,0.031000,-0.997000,3,19,1,19,37.5417962,127.0795509,42.776,0.716000,1.866000,0.026000,-0.002000,-0.017000,0.089000,1000,1000,1000,1000,1000.000000,0,0,0,0,1,0,0,0,0,2049,0.000000,0,0.000000,0.000000,0.000000,0.000000,0.000000,0.000000,0.000000,0.000000,0.000000,0.000000,0.000000,0.000000,0.000000,0.000000,0.000000,0.000000,0.000000,0.000000,0.000000,0.000000,0.000000,0.000000,0.000000,0.000000,0.000000,0.000000,0.000000,0.000000,0.000000,0.000000,0.000000,9.784786,0.000000,0.000000,0.000000,0.000000,0.000000,0.000000,0.000000,0.000000,0.000000,0.000000,0.000000,0.000000,0.000000,0.000000,0.000000,0.000000,0.000000,0.000000,0.000000,0.000000,0.000000,0.000000,0.000000,0.000000,0.000000,0.000000,0.000000,0.000000,0.000000,0.000000,0.000000,0.000000,0.000000,0,0,0,0,0,0.000000,0,0,0,1,0,0,0.000000,0.000000,0.000000,0.000000,0.000000,0.000000,0,0.997770,0.000000,0.000000,0.000000,0.000000,0.000000,0.000000,-1.823455,1.544855,1.823455,-1.544855,0.000000,0,0
13800,0.404212,0.005900,0.020001,-0.914428,0.000000,0.000000,0.000000,0.026000,0.031000,-0.995000,3,19,1,19,37.5417962,127.0795509,42.776,0.716000,1.866000,0.026000,-0.002000,-0.017000,0.089000,1000,1000,1000,1000,1000.000000,0,0,0,0,1,0,0,0,0,2093,0.000000,0,0.000000,0.000000,0.000000,0.000000,0.000000,0.000000,0.000000,0.000000,0.000000,0.000000,0.000000,0.000000,0.000000,0.000000,0.000000,0.000000,0.000000,0.000000,0.000000,0.000000,0.000000,0.000000,0.000000,0.000000,0.000000,0.000000,0.000000,0.000000,0.000000,0.000000,0.000000,9.765680,0.000000,0.000000,0.000000,0.000000,0.000000,0.000000,0.000000,0.000000,0.000000,0.000000,0.000000,0.000000,0.000000,0.000000,0.000000,0.000000,0.000000,0.000000,0.000000,0.000000,0.000000,0.000000,0.000000,0.000000,0.000000,0.000000,0.000000,0.000000,0.000000,0.000000,0.000000,0.000000,0.000000,0,0,0,0,0,0.000000,0,0,0,1,0,0,0.000000,0.000000,0.000000,0.000000,0.000000,0.000000,0,0.995822,0.000000,0.000000,0.000000,0.000000,0.000000,0.000000,-1.823455,1.544855,1.823455,-1.544855,0.000000,0,0
13848,0.404212,0.005900,0.020001,-0.914428,0.000000,0.000000,0.000000,0.026000,0.032000,-0.995000,3,19,1,19,37.5417962,127.0795507,42.727,0.712000,1.855000,-0.016000,0.015000,-0.001000,0.115000,1000,1000,1000,1000,1000.000000,0,0,0,0,1,0,0,0,0,2141,0.000000,0,0.000000,0.000000,0.000000,0.000000,0.000000,0.000000,0.000000,0.000000,0.000000,0.000000,0.000000,0.000000,0.000000,0.000000,0.000000,0.000000,0.000000,0.000000,0.000000,0.000000,0.000000,0.000000,0.000000,0.000000,0.000000,0.000000,0.000000,0.000000,0.000000,0.000000,0.000000,9.765991,0.000000,0.000000,0.000000,0.000000,0.000000,0.000000,0.000000,0.000000,0.000000,0.000000,0.000000,0.000000,0.000000,0.000000,0.000000,0.000000,0.000000,0.000000,0.000000,0.000000,0.000000,0.000000,0.000000,0.000000,0.000000,0.000000,0.000000,0.000000,0.000000,0.000000,0.000000,0.000000,0.000000,0,0,0,0,0,0.000000,0,0,0,1,0,0,0.000000,0.000000,0.000000,0.000000,0.000000,0.000000,0,0.995854,0.000000,0.000000,0.000000,0.000000,0.000000,0.000000,-1.823455,1.544855,1.823455,-1.544855,0.000000,0,0
13872,0.404212,0.005900,0.020001,-0.914428,0.000000,0.000000,0.000000,0.028000,0.033000,-0.998000,3,19,1,19,37.5417962,127.0795507,42.727,0.712000,1.855000,-0.016000,0.015000,-0.001000,0.115000,1000,1000,1000,1000,1000.000000,0,0,0,0,1,0,0,0,0,2165,0.000000,0,0.000000,0.000000,0.000000,0.000000,0.000000,0.000000,0.000000,0.000000,0.000000,0.000000,0.000000,0.000000,0.000000,0.000000,0.000000,0.000000,0.000000,0.000000,0.000000,0.000000,0.000000,0.000000,0.000000,0.000000,0.000000,0.000000,0.000000,0.000000,0.000000,0.000000,0.000000,9.796235,0.000000,0.000000,0.000000,0.000000,0.000000,0.000000,0.000000,0.000000,0.000000,0.000000,0.000000,0.000000,0.000000,0.000000,0.000000,0.000000,0.000000,0.000000,0.000000,0.000000,0.000000,0.000000,0.000000,0.000000,0.000000,0.000000,0.000000,0.000000,0.000000,0.000000,0.000000,0.000000,0.000000,0,0,0,0,0,0.000000,0,0,0,1,0,0,0.000000,0.000000,0.000000,0.000000,0.000000,0.000000,0,0.998938,0.000000,0.000000,0.000000,0.000000,0.000000,0.000000,-1.823455,1.544855,1.823455,-1.544855,0.000000,0,0
13916,0.404212,0.005900,0.020001,-0.914428,0.000000,0.000000,0.000000,0.025000,0.029000,-0.998000,3,19,1,19,37.5417962,127.0795507,42.727,0.712000,1.855000,-0.016000,0.015000,-0.001000,0.115000,1000,1000,1000,1000,1000.000000,0,0,0,0,1,0,0,0,0,2209,0.000000,0,0.000000,0.000000,0.000000,0.000000,0.000000,0.000000,0.000000,0.000000,0.000000,0.000000,0.000000,0.000000,0.000000,0.000000,0.000000,0.000000,0.000000,0.000000,0.000000,0.000000,0.000000,0.000000,0.000000,0.000000,0.000000,0.000000,0.000000,0.000000,0.000000,0.000000,0.000000,9.794237,0.000000,0.000000,0.000000,0.000000,0.000000,0.000000,0.000000,0.000000,0.000000,0.000000,0.000000,0.000000,0.000000,0.000000,0.000000,0.000000,0.000000,0.000000,0.000000,0.000000,0.000000,0.000000,0.000000,0.000000,0.000000,0.000000,0.000000,0.000000,0.000000,0.000000,0.000000,0.000000,0.000000,0,0,0,0,0,0.000000,0,0,0,1,0,0,0.000000,0.000000,0.000000,0.000000,0.000000,0.000000,0,0.998734,0.000000,0.000000,0.000000,0.000000,0.000000,0.000000,-1.823455,1.544855,1.823455,-1.544855,0.000000,0,0
13962,0.404212,0.005900,0.020001,-0.914428,0.000000,0.000000,0.000000,0.026000,0.031000,-0.997000,3,19,1,19,37.5417963,127.0795506,42.687,0.708000,1.843000,0.016000,0.003000,0.004000,0.106000,1000,1000,1000,1000,1000.000000,0,0,0,0,1,0,0,0,0,2255,0.000000,0,0.000000,0.000000,0.000000,0.000000,0.000000,0.000000,0.000000,0.000000,0.000000,0.000000,0.000000,0.000000,0.000000,0.000000,0.000000,0.000000,0.000000,0.000000,0.000000,0.000000,0.000000,0.000000,0.000000,0.000000,0.000000,0.000000,0.000000,0.000000,0.000000,0.000000,0.000000,9.785277,0.000000,0.000000,0.000000,0.000000,0.000000,0.000000,0.000000,0.000000,0.000000,0.000000,0.000000,0.000000,0.000000,0.000000,0.000000,0.000000,0.000000,0.000000,0.000000,0.000000,0.000000,0.000000,0.000000,0.000000,0.000000,0.000000,0.000000,0.000000,0.000000,0.000000,0.000000,0.000000,0.000000,0,0,0,0,0,0.000000,0,0,0,1,0,0,0.000000,0.000000,0.000000,0.000000,0.000000,0.000000,0,0.997821,0.000000,0.000000,0.000000,0.000000,0.000000,0.000000,-1.823455,1.544855,1.823455,-1.544855,0.000000,0,0
14022,0.404213,0.005900,0.019901,-0.914429,0.000000,0.000000,0.000000,0.027000,0.031000,-0.997000,3,19,1,19,37.5417963,127.0795506,42.687,0.708000,1.843000,0.016000,0.003000,0.004000,0.106000,1000,1000,1000,1000,1000.000000,0,0,0,0,1,0,0,0,0,2315,0.000000,0,0.000000,0.000000,0.000000,0.000000,0.000000,0.000000,0.000000,0.000000,0.000000,0.000000,0.000000,0.000000,0.000000,0.000000,0.000000,0.000000,0.000000,0.000000,0.000000,0.000000,0.000000,0.000000,0.000000,0.000000,0.000000,0.000000,0.000000,0.000000,0.000000,0.000000,0.000000,9.785538,0.000000,0.000000,0.000000,0.000000,0.000000,0.000000,0.000000,0.000000,0.000000,0.000000,0.000000,0.000000,0.000000,0.000000,0.000000,0.000000,0.000000,0.000000,0.000000,0.000000,0.000000,0.000000,0.000000,0.000000,0.000000,0.000000,0.000000,0.000000,0.000000,0.000000,0.000000,0.000000,0.000000,0,0,0,0,0,0.000000,0,0,0,1,0,0,0.000000,0.000000,0.000000,0.000000,0.000000,0.000000,0,0.997847,0.000000,0.000000,0.000000,0.000000,0.000000,0.000000,-1.812971,1.540228,1.812971,-1.540228,0.077122,0,0
14048,0.404213,0.005900,0.019901,-0.914429,0.000000,0.000000,0.000000,0.025000,0.032000,-0.996000,3,19,1,19,37.5417963,127.0795506,42.687,0.708000,1.843000,0.016000,0.003000,0.004000,0.106000,1000,1000,1000,1000,1000.000000,0,0,0,0,1,0,0,0,0,2340,0.000000,0,0.000000,0.000000,0.000000,0.000000,0.000000,0.000000,0.000000,0.000000,0.000000,0.000000,0.000000,0.000000,0.000000,0.000000,0.000000,0.000000,0.000000,0.000000,0.000000,0.000000,0.000000,0.000000,0.000000,0.000000,0.000000,0.000000,0.000000,0.000000,0.000000,0.000000,0.000000,9.775538,0.000000,0.000000,0.000000,0.000000,0.000000,0.000000,0.000000,0.000000,0.000000,0.000000,0.000000,0.000000,0.000000,0.000000,0.000000,0.000000,0.000000,0.000000,0.000000,0.000000,0.000000,0.000000,0.000000,0.000000,0.000000,0.000000,0.000000,0.000000,0.000000,0.000000,0.000000,0.000000,0.000000,0,0,0,0,0,0.000000,0,0,0,1,0,0,0.000000,0.000000,0.000000,0.000000,0.000000,0.000000,0,0.996827,0.000000,0.000000,0.000000,0.000000,0.000000,0.000000,-1.812971,1.540228,1.812971,-1.540228,0.000000,0,0
14071,0.404213,0.005900,0.019901,-0.914429,0.000000,0.000000,0.000000,0.025000,0.031000,-0.996000,3,19,1,19,37.5417963,127.0795506,42.687,0.708000,1.843000,0.016000,0.003000,0.004000,0.106000,1000,1000,1000,1000,1000.000000,0,0,0,0,1,0,0,0,0,2364,0.000000,0,0.000000,0.000000,0.000000,0.000000,0.000000,0.000000,0.000000,0.000000,0.000000,0.000000,0.000000,0.000000,0.000000,0.000000,0.000000,0.000000,0.000000,0.000000,0.000000,0.000000,0.000000,0.000000,0.000000,0.000000,0.000000,0.000000,0.000000,0.000000,0.000000,0.000000,0.000000,9.775228,0.000000,0.000000,0.000000,0.000000,0.000000,0.000000,0.000000,0.000000,0.000000,0.000000,0.000000,0.000000,0.000000,0.000000,0.000000,0.000000,0.000000,0.000000,0.000000,0.000000,0.000000,0.000000,0.000000,0.000000,0.000000,0.000000,0.000000,0.000000,0.000000,0.000000,0.000000,0.000000,0.000000,0,0,0,0,0,0.000000,0,0,0,1,0,0,0.000000,0.000000,0.000000,0.000000,0.000000,0.000000,0,0.996796,0.000000,0.000000,0.000000,0.000000,0.000000,0.000000,-1.812971,1.540228,1.812971,-1.540228,0.000000,0,0
14115,0.404213,0.005900,0.019901,-0.914429,0.000000,0.000000,0.000000,0.027000,0.031000,-0.997000,3,19,1,19,37.5417963,127.0795503,42.646,0.704000,1.832000,0.010000,-0.006000,0.005000,0.130000,1000,1000,1000,1000,1000.000000,0,0,0,0,1,0,0,0,0,2408,0.000000,0,0.000000,0.000000,0.000000,0.000000,0.000000,0.000000,0.000000,0.000000,0.000000,0.000000,0.000000,0.000000,0.000000,0.000000,0.000000,0.000000,0.000000,0.000000,0.000000,0.000000,0.000000,0.000000,0.000000,0.000000,0.000000,0.000000,0.000000,0.000000,0.000000,0.000000,0.000000,9.785538,0.000000,0.000000,0.000000,0.000000,0.000000,0.000000,0.000000,0.000000,0.000000,0.000000,0.000000,0.000000,0.000000,0.000000,0.000000,0.000000,0.000000,0.000000,0.000000,0.000000,0.000000,0.000000,0.000000,0.000000,0.000000,0.000000,0.000000,0.000000,0.000000,0.000000,0.000000,0.000000,0.000000,0,0,0,0,0,0.000000,0,0,0,1,0,0,0.000000,0.000000,0.000000,0.000000,0.000000,0.000000,0,0.997847,0.000000,0.000000,0.000000,0.000000,0.000000,0.000000,-1.812971,1.540228,1.812971,-1.540228,0.000000,0,0
14162,0.404213,0.005900,0.019901,-0.914429,0.000000,0.000000,0.000000,0.026000,0.030000,-0.995000,3,19,1,19,37.5417963,127.0795503,42.646,0.704000,1.832000,0.010000,-0.006000,0.005000,0.130000,1000,1000,1000,1000,1000.000000,0,0,0,0,1,0,0,0,0,2455,0.000000,0,0.000000,0.000000,0.000000,0.000000,0.000000,0.000000,0.000000,0.000000,0.000000,0.000000,0.000000,0.000000,0.000000,0.000000,0.000000,0.000000,0.000000,0.000000,0.000000,0.000000,0.000000,0.000000,0.000000,0.000000,0.000000,0.000000,0.000000,0.000000,0.000000,0.000000,0.000000,9.765380,0.000000,0.000000,0.000000,0.000000,0.000000,0.000000,0.000000,0.000000,0.000000,0.000000,0.000000,0.000000,0.000000,0.000000,0.000000,0.000000,0.000000,0.000000,0.000000,0.000000,0.000000,0.000000,0.000000,0.000000,0.000000,0.000000,0.000000,0.000000,0.000000,0.000000,0.000000,0.000000,0.000000,0,0,0,0,0,0.000000,0,0,0,1,0,0,0.000000,0.000000,0.000000,0.000000,0.000000,0.000000,0,0.995792,0.000000,0.000000,0.000000,0.000000,0.000000,0.000000,-1.812971,1.540228,1.812971,-1.540228,0.000000,0,0
14206,0.404213,0.005900,0.019901,-0.914429,0.000000,0.000000,0.000000,0.025000,0.033000,-0.998000,3,19,1,19,37.5417963,127.0795503,42.646,0.704000,1.832000,0.010000,-0.006000,0.005000,0.130000,1000,1000,1000,1000,1000.000000,0,0,0,0,1,0,0,0,0,2499,0.000000,0,0.000000,0.000000,0.000000,0.000000,0.000000,0.000000,0.000000,0.000000,0.000000,0.000000,0.000000,0.000000,0.000000,0.000000,0.000000,0.000000,0.000000,0.000000,0.000000,0.000000,0.000000,0.000000,0.000000,0.000000,0.000000,0.000000,0.000000,0.000000,0.000000,0.000000,0.000000,9.795455,0.000000,0.000000,0.000000,0.000000,0.000000,0.000000,0.000000,0.000000,0.000000,0.000000,0.000000,0.000000,0.000000,0.000000,0.000000,0.000000,0.000000,0.000000,0.000000,0.000000,0.000000,0.000000,0.000000,0.000000,0.000000,0.000000,0.000000,0.000000,0.000000,0.000000,0.000000,0.000000,0.000000,0,0,0,0,0,0.000000,0,0,0,1,0,0,0.000000,0.000000,0.000000,0.000000,0.000000,0.000000,0,0.998858,0.000000,0.000000,0.000000,0.000000,0.000000,0.000000,-1.812971,1.540228,1.812971,-1.540228,0.000000,0,0
14230,0.404213,0.005900,0.019901,-0.914429,0.000000,0.000000,0.000000,0.026000,0.032000,-0.994000,3,19,1,19,37.5417964,127.0795503,42.612,0.700000,1.821000,-0.006000,0.021000,-0.006000,0.133000,1000,1000,1000,1000,1000.000000,0,0,0,0,1,0,0,0,0,2523,0.000000,0,0.000000,0.000000,0.000000,0.000000,0.000000,0.000000,0.000000,0.000000,0.000000,0.000000,0.000000,0.000000,0.000000,0.000000,0.000000,0.000000,0.000000,0.000000,0.000000,0.000000,0.000000,0.000000,0.000000,0.000000,0.000000,0.000000,0.000000,0.000000,0.000000,0.000000,0.000000,9.756192,0.000000,0.000000,0.000000,0.000000,0.000000,0.000000,0.000000,0.000000,0.000000,0.000000,0.000000,0.000000,0.000000,0.000000,0.000000,0.000000,0.000000,0.000000,0.000000,0.000000,0.000000,0.000000,0.000000,0.000000,0.000000,0.000000,0.000000,0.000000,0.000000,0.000000,0.000000,0.000000,0.000000,0,0,0,0,0,0.000000,0,0,0,1,0,0,0.000000,0.000000,0.000000,0.000000,0.000000,0.000000,0,0.994855,0.000000,0.000000,0.000000,0.000000,0.000000,0.000000,-1.812971,1.540228,1.812971,-1.540228,0.000000,0,0
14293,0.404213,0.005900,0.019901,-0.914429,0.000000,0.000000,0.000000,0.027000,0.031000,-0.997000,3,19,1,19,37.5417964,127.0795503,42.612,0.700000,1.821000,-0.006000,0.021000,-0.006000,0.133000,1000,1000,1000,1000,1000.000000,0,0,0,0,1,0,0,0,0,2585,0.000000,0,0.000000,0.000000,0.000000,0.000000,0.000000,0.000000,0.000000,0.000000,0.000000,0.000000,0.000000,0.000000,0.000000,0.000000,0.000000,0.000000,0.000000,0.000000,0.000000,0.000000,0.000000,0.000000,0.000000,0.000000,0.000000,0.000000,0.000000,0.000000,0.000000,0.000000,0.000000,9.785538,0.000000,0.000000,0.000000,0.000000,0.000000,0.000000,0.000000,0.000000,0.000000,0.000000,0.000000,0.000000,0.000000,0.000000,0.000000,0.000000,0.000000,0.000000,0.000000,0.000000,0.000000,0.000000,0.000000,0.000000,0.000000,0.000000,0.000000,0.000000,0.000000,0.000000,0.000000,0.000000,0.000000,0,0,0,0,0,0.000000,0,0,0,1,0,0,0.000000,0.000000,0.000000,0.000000,0.000000,0.000000,0,0.997847,0.000000,0.000000,0.000000,0.000000,0.000000,0.000000,-1.812971,1.540228,1.812971,-1.540228,0.000000,0,0
14316,0.404213,0.005900,0.019901,-0.914429,0.000000,0.000000,0.000000,0.026000,0.030000,-0.997000,3,19,1,19,37.5417964,127.0795503,42.612,0.700000,1.821000,-0.006000,0.021000,-0.006000,0.133000,1000,1000,1000,1000,1000.000000,0,0,0,0,1,0,0,0,0,2609,0.000000,0,0.000000,0.000000,0.000000,0.000000,0.000000,0.000000,0.000000,0.000000,0.000000,0.000000,0.000000,0.000000,0.000000,0.000000,0.000000,0.000000,0.000000,0.000000,0.000000,0.000000,0.000000,0.000000,0.000000,0.000000,0.000000,0.000000,0.000000,0.000000,0.000000,0.000000,0.000000,9.784978,0.000000,0.000000,0.000000,0.000000,0.000000,0.000000,0.000000,0.000000,0.000000,0.000000,0.000000,0.000000,0.000000,0.000000,0.000000,0.000000,0.000000,0.000000,0.000000,0.000000,0.000000,0.000000,0.000000,0.000000,0.000000,0.000000,0.000000,0.000000,0.000000,0.000000,0.000000,0.000000,0.000000,0,0,0,0,0,0.000000,0,0,0,1,0,0,0.000000,0.000000,0.000000,0.000000,0.000000,0.000000,0,0.997790,0.000000,0.000000,0.000000,0.000000,0.000000,0.000000,-1.812971,1.540228,1.812971,-1.540228,0.000000,0,0
14364,0.404213,0.005900,0.019901,-0.914429,0.000000,0.000000,0.000000,0.025000,0.031000,-0.997000,3,19,1,19,37.5417964,127.0795501,42.584,0.697000,1.811000,0.007000,-0.007000,0.001000,0.114000,1000,1000,1000,1000,1000.000000,0,0,0,0,1,0,0,0,0,2657,0.000000,0,0.000000,0.000000,0.000000,0.000000,0.000000,0.000000,0.000000,0.000000,0.000000,0.000000,0.000000,0.000000,0.000000,0.000000,0.000000,0.000000,0.000000,0.000000,0.000000,0.000000,0.000000,0.000000,0.000000,0.000000,0.000000,0.000000,0.000000,0.000000,0.000000,0.000000,0.000000,9.785027,0.000000,0.000000,0.000000,0.000000,0.000000,0.000000,0.000000,0.000000,0.000000,0.000000,0.000000,0.000000,0.000000,0.000000,0.000000,0.000000,0.000000,0.000000,0.000000,0.000000,0.000000,0.000000,0.000000,0.000000,0.000000,0.000000,0.000000,0.000000,0.000000,0.000000,0.000000,0.000000,0.000000,0,0,0,0,0,0.000000,0,0,0,1,0,0,0.000000,0.000000,0.000000,0.000000,0.000000,0.000000,0,0.997795,0.000000,0.000000,0.000000,0.000000,0.000000,0.000000,-1.812971,1.540228,1.812971,-1.540228,0.000000,0,0
14388,0.404213,0.005900,0.019901,-0.914429,0.000000,0.000000,0.000000,0.026000,0.031000,-0.998000,3,19,1,19,37.5417964,127.0795501,42.584,0.697000,1.811000,0.007000,-0.007000,0.001000,0.114000,1000,1000,1000,1000,1000.000000,0,0,0,0,1,0,0,0,0,2681,0.000000,0,0.000000,0.000000,0.000000,0.000000,0.000000,0.000000,0.000000,0.000000,0.000000,0.000000,0.000000,0.000000,0.000000,0.000000,0.000000,0.000000,0.000000,0.000000,0.000000,0.000000,0.000000,0.000000,0.000000,0.000000,0.000000,0.000000,0.000000,0.000000,0.000000,0.000000,0.000000,9.795076,0.000000,0.000000,0.000000,0.000000,0.000000,0.000000,0.000000,0.000000,0.000000,0.000000,0.000000,0.000000,0.000000,0.000000,0.000000,0.000000,0.000000,0.000000,0.000000,0.000000,0.000000,0.000000,0.000000,0.000000,0.000000,0.000000,0.000000,0.000000,0.000000,0.000000,0.000000,0.000000,0.000000,0,0,0,0,0,0.000000,0,0,0,1,0,0,0.000000,0.000000,0.000000,0.000000,0.000000,0.000000,0,0.998820,0.000000,0.000000,0.000000,0.000000,0.000000,0.000000,-1.812971,1.540228,1.812971,-1.540228,0.000000,0,0
14435,0.404213,0.005900,0.019901,-0.914429,0.000000,0.000000,0.000000,0.025000,0.031000,-0.996000,3,19,1,19,37.5417964,127.0795501,42.584,0.697000,1.811000,0.007000,-0.007000,0.001000,0.114000,1000,1000,1000,1000,1000.000000,0,0,0,0,1,0,0,0,0,2728,0.000000,0,0.000000,0.000000,0.000000,0.000000,0.000000,0.000000,0.000000,0.000000,0.000000,0.000000,0.000000,0.000000,0.000000,0.000000,0.000000,0.000000,0.000000,0.000000,0.000000,0.000000,0.000000,0.000000,0.000000,0.000000,0.000000,0.000000,0.000000,0.000000,0.000000,0.000000,0.000000,9.775228,0.000000,0.000000,0.000000,0.000000,0.000000,0.000000,0.000000,0.000000,0.000000,0.000000,0.000000,0.000000,0.000000,0.000000,0.000000,0.000000,0.000000,0.000000,0.000000,0.000000,0.000000,0.000000,0.000000,0.000000,0.000000,0.000000,0.000000,0.000000,0.000000,0.000000,0.000000,0.000000,0.000000,0,0,0,0,0,0.000000,0,0,0,1,0,0,0.000000,0.000000,0.000000,0.000000,0.000000,0.000000,0,0.996796,0.000000,0.000000,0.000000,0.000000,0.000000,0.000000,-1.812971,1.540228,1.812971,-1.540228,0.000000,0,0
14482,0.404213,0.005900,0.019901,-0.914429,0.000000,0.000000,0.000000,0.026000,0.032000,-0.997000,3,19,1,19,37.5417964,127.0795500,42.557,0.693000,1.801000,-0.002000,0.006000,-0.004000,0.124000,1000,1000,1000,1000,1000.000000,0,0,0,0,1,0,0,0,0,2775,0.000000,0,0.000000,0.000000,0.000000,0.000000,0.000000,0.000000,0.000000,0.000000,0.000000,0.000000,0.000000,0.000000,0.000000,0.000000,0.000000,0.000000,0.000000,0.000000,0.000000,0.000000,0.000000,0.000000,0.000000,0.000000,0.000000,0.000000,0.000000,0.000000,0.000000,0.000000,0.000000,9.785587,0.000000,0.000000,0.000000,0.000000,0.000000,0.000000,0.000000,0.000000,0.000000,0.000000,0.000000,0.000000,0.000000,0.000000,0.000000,0.000000,0.000000,0.000000,0.000000,0.000000,0.000000,0.000000,0.000000,0.000000,0.000000,0.000000,0.000000,0.000000,0.000000,0.000000,0.000000,0.000000,0.000000,0,0,0,0,0,0.000000,0,0,0,1,0,0,0.000000,0.000000,0.000000,0.000000,0.000000,0.000000,0,0.997852,0.000000,0.000000,0.000000,0.000000,0.000000,0.000000,-1.812971,1.540228,1.812971,-1.540228,0.000000,0,0
14526,0.404213,0.005900,0.019901,-0.914429,0.000000,0.000000,0.000000,0.026000,0.032000,-0.996000,3,19,1,19,37.5417964,127.0795500,42.557,0.693000,1.801000,-0.002000,0.006000,-0.004000,0.124000,1000,1000,1000,1000,1000.000000,0,0,0,0,1,0,0,0,0,2819,0.000000,0,0.000000,0.000000,0.000000,0.000000,0.000000,0.000000,0.000000,0.000000,0.000000,0.000000,0.000000,0.000000,0.000000,0.000000,0.000000,0.000000,0.000000,0.000000,0.000000,0.000000,0.000000,0.000000,0.000000,0.000000,0.000000,0.000000,0.000000,0.000000,0.000000,0.000000,0.000000,9.775788,0.000000,0.000000,0.000000,0.000000,0.000000,0.000000,0.000000,0.000000,0.000000,0.000000,0.000000,0.000000,0.000000,0.000000,0.000000,0.000000,0.000000,0.000000,0.000000,0.000000,0.000000,0.000000,0.000000,0.000000,0.000000,0.000000,0.000000,0.000000,0.000000,0.000000,0.000000,0.000000,0.000000,0,0,0,0,0,0.000000,0,0,0,1,0,0,0.000000,0.000000,0.000000,0.000000,0.000000,0.000000,0,0.996853,0.000000,0.000000,0.000000,0.000000,0.000000,0.000000,-1.812971,1.540228,1.812971,-1.540228,0.000000,0,0
14603,0.404213,0.005900,0.019901,-0.914429,0.000000,0.000000,0.000000,0.027000,0.029000,-0.997000,3,19,1,19,37.5417964,127.0795499,42.564,0.689000,1.790000,-0.014000,0.019000,-0.012000,0.138000,1000,1000,1000,1000,1000.000000,0,0,0,0,0,1,0,0,0,2896,0.000000,0,0.000000,0.000000,0.000000,0.000000,0.000000,0.000000,0.000000,0.000000,0.000000,0.000000,0.000000,0.000000,0.000000,0.000000,0.000000,0.000000,0.000000,0.000000,0.000000,0.000000,0.000000,0.000000,0.000000,0.000000,0.000000,0.000000,0.000000,0.000000,0.000000,0.000000,0.000000,9.784948,0.000000,0.000000,0.000000,0.000000,0.000000,0.000000,0.000000,0.000000,0.000000,0.000000,0.000000,0.000000,0.000000,0.000000,0.000000,0.000000,0.000000,0.000000,0.000000,0.000000,0.000000,0.000000,0.000000,0.000000,0.000000,0.000000,0.000000,0.000000,0.000000,0.000000,0.000000,0.000000,0.000000,0,0,0,0,0,0.000000,0,0,0,1,0,0,0.000000,0.000000,0.000000,0.000000,0.000000,0.000000,0,0.997787,0.000000,0.000000,0.000000,0.000000,0.000000,0.000000,-1.812971,1.540228,1.812971,-1.540228,0.000000,0,0
14647,0.404213,0.005900,0.019901,-0.914429,0.000000,0.000000,0.000000,0.026000,0.031000,-0.998000,3,19,1,19,37.5417964,127.0795499,42.564,0.689000,1.790000,-0.014000,0.019000,-0.012000,0.138000,1000,1000,1000,1000,1000.000000,0,0,0,0,0,1,0,0,0,2940,0.000000,0,0.000000,0.000000,0.000000,0.000000,0.000000,0.000000,0.000000,0.000000,0.000000,0.000000,0.000000,0.000000,0.000000,0.000000,0.000000,0.000000,0.000000,0.000000,0.000000,0.000000,0.000000,0.000000,0.000000,0.000000,0.000000,0.000000,0.000000,0.000000,0.000000,0.000000,0.000000,9.795076,0.000000,0.000000,0.000000,0.000000,0.000000,0.000000,0.000000,0.000000,0.000000,0.000000,0.000000,0.000000,0.000000,0.000000,0.000000,0.000000,0.000000,0.000000,0.000000,0.000000,0.000000,0.000000,0.000000,0.000000,0.000000,0.000000,0.000000,0.000000,0.000000,0.000000,0.000000,0.000000,0.000000,0,0,0,0,0,0.000000,0,0,0,1,0,0,0.000000,0.000000,0.000000,0.000000,0.000000,0.000000,0,0.998820,0.000000,0.000000,0.000000,0.000000,0.000000,0.000000,-1.812971,1.540228,1.812971,-1.540228,0.000000,0,0
14704,0.404213,0.005900,0.019901,-0.914429,0.000000,0.000000,0.000000,0.026000,0.033000,-0.997000,3,19,1,19,37.5417964,127.0795499,42.564,0.689000,1.790000,-0.014000,0.019000,-0.012000,0.138000,1000,1000,1000,1000,1000.000000,0,0,0,0,0,1,0,0,0,2997,0.000000,0,0.000000,0.000000,0.000000,0.000000,0.000000,0.000000,0.000000,0.000000,0.000000,0.000000,0.000000,0.000000,0.000000,0.000000,0.000000,0.000000,0.000000,0.000000,0.000000,0.000000,0.000000,0.000000,0.000000,0.000000,0.000000,0.000000,0.000000,0.000000,0.000000,0.000000,0.000000,9.785907,0.000000,0.000000,0.000000,0.000000,0.000000,0.000000,0.000000,0.000000,0.000000,0.000000,0.000000,0.000000,0.000000,0.000000,0.000000,0.000000,0.000000,0.000000,0.000000,0.000000,0.000000,0.000000,0.000000,0.000000,0.000000,0.000000,0.000000,0.000000,0.000000,0.000000,0.000000,0.000000,0.000000,0,0,0,0,0,0.000000,0,0,0,1,0,0,0.000000,0.000000,0.000000,0.000000,0.000000,0.000000,0,0.997885,0.000000,0.000000,0.000000,0.000000,0.000000,0.000000,-1.812971,1.540228,1.812971,-1.540228,0.000000,0,0
14728,0.404213,0.005900,0.019901,-0.914429,0.000000,0.000000,0.000000,0.026000,0.032000,-0.997000,3,19,1,19,37.5417964,127.0795497,42.589,0.686000,1.779000,0.021000,-0.027000,-0.038000,0.117000,1000,1000,1000,1000,1000.000000,0,0,0,0,0,1,0,0,0,3021,0.000000,0,0.000000,0.000000,0.000000,0.000000,0.000000,0.000000,0.000000,0.000000,0.000000,0.000000,0.000000,0.000000,0.000000,0.000000,0.000000,0.000000,0.000000,0.000000,0.000000,0.000000,0.000000,0.000000,0.000000,0.000000,0.000000,0.000000,0.000000,0.000000,0.000000,0.000000,0.000000,9.785587,0.000000,0.000000,0.000000,0.000000,0.000000,0.000000,0.000000,0.000000,0.000000,0.000000,0.000000,0.000000,0.000000,0.000000,0.000000,0.000000,0.000000,0.000000,0.000000,0.000000,0.000000,0.000000,0.000000,0.000000,0.000000,0.000000,0.000000,0.000000,0.000000,0.000000,0.000000,0.000000,0.000000,0,0,0,0,0,0.000000,0,0,0,1,0,0,0.000000,0.000000,0.000000,0.000000,0.000000,0.000000,0,0.997852,0.000000,0.000000,0.000000,0.000000,0.000000,0.000000,-1.812971,1.540228,1.812971,-1.540228,0.000000,0,0
14772,0.404213,0.005900,0.019901,-0.914429,0.000000,0.000000,0.000000,0.026000,0.032000,-0.995000,3,19,1,19,37.5417964,127.0795497,42.589,0.686000,1.779000,0.021000,-0.027000,-0.038000,0.117000,1000,1000,1000,1000,1000.000000,0,0,0,0,0,1,0,0,0,3065,0.000000,0,0.000000,0.000000,0.000000,0.000000,0.000000,0.000000,0.000000,0.000000,0.000000,0.000000,0.000000,0.000000,0.000000,0.000000,0.000000,0.000000,0.000000,0.000000,0.000000,0.000000,0.000000,0.000000,0.000000,0.000000,0.000000,0.000000,0.000000,0.000000,0.000000,0.000000,0.000000,9.765991,0.000000,0.000000,0.000000,0.000000,0.000000,0.000000,0.000000,0.000000,0.000000,0.000000,0.000000,0.000000,0.000000,0.000000,0.000000,0.000000,0.000000,0.000000,0.000000,0.000000,0.000000,0.000000,0.000000,0.000000,0.000000,0.000000,0.000000,0.000000,0.000000,0.000000,0.000000,0.000000,0.000000,0,0,0,0,0,0.000000,0,0,0,1,0,0,0.000000,0.000000,0.000000,0.000000,0.000000,0.000000,0,0.995854,0.000000,0.000000,0.000000,0.000000,0.000000,0.000000,-1.812971,1.540228,1.812971,-1.540228,0.000000,0,0
14816,0.404213,0.005900,0.019901,-0.914429,0.000000,0.000000,0.000000,0.027000,0.033000,-0.999000,3,19,1,19,37.5417964,127.0795497,42.589,0.686000,1.779000,0.021000,-0.027000,-0.038000,0.117000,1000,1000,1000,1000,1000.000000,0,0,0,0,0,1,0,0,0,3109,0.000000,0,0.000000,0.000000,0.000000,0.000000,0.000000,0.000000,0.000000,0.000000,0.000000,0.000000,0.000000,0.000000,0.000000,0.000000,0.000000,0.000000,0.000000,0.000000,0.000000,0.000000,0.000000,0.000000,0.000000,0.000000,0.000000,0.000000,0.000000,0.000000,0.000000,0.000000,0.000000,9.805763,0.000000,0.000000,0.000000,0.000000,0.000000,0.000000,0.000000,0.000000,0.000000,0.000000,0.000000,0.000000,0.000000,0.000000,0.000000,0.000000,0.000000,0.000000,0.000000,0.000000,0.000000,0.000000,0.000000,0.000000,0.000000,0.000000,0.000000,0.000000,0.000000,0.000000,0.000000,0.000000,0.000000,0,0,0,0,0,0.000000,0,0,0,1,0,0,0.000000,0.000000,0.000000,0.000000,0.000000,0.000000,0,0.999910,0.000000,0.000000,0.000000,0.000000,0.000000,0.000000,-1.812971,1.540228,1.812971,-1.540228,0.000000,0,0
14843,0.404213,0.005900,0.019901,-0.914429,0.000000,0.000000,0.000000,0.027000,0.030000,-0.998000,3,19,1,19,37.5417963,127.0795497,42.567,0.683000,1.770000,-0.024000,0.023000,-0.033000,0.146000,1000,1000,1000,1000,1000.000000,0,0,0,0,0,1,0,0,0,3135,0.000000,0,0.000000,0.000000,0.000000,0.000000,0.000000,0.000000,0.000000,0.000000,0.000000,0.000000,0.000000,0.000000,0.000000,0.000000,0.000000,0.000000,0.000000,0.000000,0.000000,0.000000,0.000000,0.000000,0.000000,0.000000,0.000000,0.000000,0.000000,0.000000,0.000000,0.000000,0.000000,9.795037,0.000000,0.000000,0.000000,0.000000,0.000000,0.000000,0.000000,0.000000,0.000000,0.000000,0.000000,0.000000,0.000000,0.000000,0.000000,0.000000,0.000000,0.000000,0.000000,0.000000,0.000000,0.000000,0.000000,0.000000,0.000000,0.000000,0.000000,0.000000,0.000000,0.000000,0.000000,0.000000,0.000000,0,0,0,0,0,0.000000,0,0,0,1,0,0,0.000000,0.000000,0.000000,0.000000,0.000000,0.000000,0,0.998816,0.000000,0.000000,0.000000,0.000000,0.000000,0.000000,-1.812971,1.540228,1.812971,-1.540228,0.000000,0,0
14886,0.404212,0.005900,0.020001,-0.914428,0.000000,0.000000,0.000000,0.027000,0.032000,-0.996000,3,19,1,19,37.5417963,127.0795497,42.567,0.683000,1.770000,-0.024000,0.023000,-0.033000,0.146000,1000,1000,1000,1000,1000.000000,0,0,0,0,0,1,0,0,0,3179,0.000000,0,0.000000,0.000000,0.000000,0.000000,0.000000,0.000000,0.000000,0.000000,0.000000,0.000000,0.000000,0.000000,0.000000,0.000000,0.000000,0.000000,0.000000,0.000000,0.000000,0.000000,0.000000,0.000000,0.000000,0.000000,0.000000,0.000000,0.000000,0.000000,0.000000,0.000000,0.000000,9.776050,0.000000,0.000000,0.000000,0.000000,0.000000,0.000000,0.000000,0.000000,0.000000,0.000000,0.000000,0.000000,0.000000,0.000000,0.000000,0.000000,0.000000,0.000000,0.000000,0.000000,0.000000,0.000000,0.000000,0.000000,0.000000,0.000000,0.000000,0.000000,0.000000,0.000000,0.000000,0.000000,0.000000,0,0,0,0,0,0.000000,0,0,0,1,0,0,0.000000,0.000000,0.000000,0.000000,0.000000,0.000000,0,0.996880,0.000000,0.000000,0.000000,0.000000,0.000000,0.000000,-1.823455,1.544855,1.823455,-1.544855,-0.107613,0,0
14933,0.404212,0.005900,0.020001,-0.914428,0.000000,0.000000,0.000000,0.026000,0.032000,-0.998000,3,19,1,19,37.5417963,127.0795497,42.567,0.683000,1.770000,-0.024000,0.023000,-0.033000,0.146000,1000,1000,1000,1000,1000.000000,0,0,0,0,0,1,0,0,0,3226,0.000000,0,0.000000,0.000000,0.000000,0.000000,0.000000,0.000000,0.000000,0.000000,0.000000,0.000000,0.000000,0.000000,0.000000,0.000000,0.000000,0.000000,0.000000,0.000000,0.000000,0.000000,0.000000,0.000000,0.000000,0.000000,0.000000,0.000000,0.000000,0.000000,0.000000,0.000000,0.000000,9.795386,0.000000,0.000000,0.000000,0.000000,0.000000,0.000000,0.000000,0.000000,0.000000,0.000000,0.000000,0.000000,0.000000,0.000000,0.000000,0.000000,0.000000,0.000000,0.000000,0.000000,0.000000,0.000000,0.000000,0.000000,0.000000,0.000000,0.000000,0.000000,0.000000,0.000000,0.000000,0.000000,0.000000,0,0,0,0,0,0.000000,0,0,0,1,0,0,0.000000,0.000000,0.000000,0.000000,0.000000,0.000000,0,0.998851,0.000000,0.000000,0.000000,0.000000,0.000000,0.000000,-1.823455,1.544855,1.823455,-1.544855,0.000000,0,0
14977,0.404213,0.005900,0.019901,-0.914429,0.000000,0.000000,0.000000,0.027000,0.029000,-0.996000,3,19,1,19,37.5417963,127.0795496,42.576,0.679000,1.759000,0.004000,0.013000,-0.010000,0.126000,1000,1000,1000,1000,1000.000000,0,0,0,0,0,1,0,0,0,3270,0.000000,0,0.000000,0.000000,0.000000,0.000000,0.000000,0.000000,0.000000,0.000000,0.000000,0.000000,0.000000,0.000000,0.000000,0.000000,0.000000,0.000000,0.000000,0.000000,0.000000,0.000000,0.000000,0.000000,0.000000,0.000000,0.000000,0.000000,0.000000,0.000000,0.000000,0.000000,0.000000,9.775149,0.000000,0.000000,0.000000,0.000000,0.000000,0.000000,0.000000,0.000000,0.000000,0.000000,0.000000,0.000000,0.000000,0.000000,0.000000,0.000000,0.000000,0.000000,0.000000,0.000000,0.000000,0.000000,0.000000,0.000000,0.000000,0.000000,0.000000,0.000000,0.000000,0.000000,0.000000,0.000000,0.000000,0,0,0,0,0,0.000000,0,0,0,1,0,0,0.000000,0.000000,0.000000,0.000000,0.000000,0.000000,0,0.996788,0.000000,0.000000,0.000000,0.000000,0.000000,0.000000,-1.812971,1.540228,1.812971,-1.540228,0.105167,0,0
15037,0.404213,0.005900,0.019901,-0.914429,0.000000,0.000000,0.000000,0.027000,0.030000,-0.998000,3,19,1,19,37.5417963,127.0795496,42.576,0.679000,1.759000,0.004000,0.013000,-0.010000,0.126000,1000,1000,1000,1000,1000.000000,0,0,0,0,0,1,0,0,0,3330,0.000000,0,0.000000,0.000000,0.000000,0.000000,0.000000,0.000000,0.000000,0.000000,0.000000,0.000000,0.000000,0.000000,0.000000,0.000000,0.000000,0.000000,0.000000,0.000000,0.000000,0.000000,0.000000,0.000000,0.000000,0.000000,0.000000,0.000000,0.000000,0.000000,0.000000,0.000000,0.000000,9.795037,0.000000,0.000000,0.000000,0.000000,0.000000,0.000000,0.000000,0.000000,0.000000,0.000000,0.000000,0.000000,0.000000,0.000000,0.000000,0.000000,0.000000,0.000000,0.000000,0.000000,0.000000,0.000000,0.000000,0.000000,0.000000,0.000000,0.000000,0.000000,0.000000,0.000000,0.000000,0.000000,0.000000,0,0,0,0,0,0.000000,0,0,0,1,0,0,0.000000,0.000000,0.000000,0.000000,0.000000,0.000000,0,0.998816,0.000000,0.000000,0.000000,0.000000,0.000000,0.000000,-1.812971,1.540228,1.812971,-1.540228,0.000000,0,0
15071,0.404213,0.005900,0.019901,-0.914429,0.000000,0.000000,0.000000,0.025000,0.030000,-0.999000,3,19,1,19,37.5417963,127.0795496,42.576,0.679000,1.759000,0.004000,0.013000,-0.010000,0.126000,1000,1000,1000,1000,1000.000000,0,0,0,0,0,1,0,0,0,3364,0.000000,0,0.000000,0.000000,0.000000,0.000000,0.000000,0.000000,0.000000,0.000000,0.000000,0.000000,0.000000,0.000000,0.000000,0.000000,0.000000,0.000000,0.000000,0.000000,0.000000,0.000000,0.000000,0.000000,0.000000,0.000000,0.000000,0.000000,0.000000,0.000000,0.000000,0.000000,0.000000,9.804326,0.000000,0.000000,0.000000,0.000000,0.000000,0.000000,0.000000,0.000000,0.000000,0.000000,0.000000,0.000000,0.000000,0.000000,0.000000,0.000000,0.000000,0.000000,0.000000,0.000000,0.000000,0.000000,0.000000,0.000000,0.000000,0.000000,0.000000,0.000000,0.000000,0.000000,0.000000,0.000000,0.000000,0,0,0,0,0,0.000000,0,0,0,1,0,0,0.000000,0.000000,0.000000,0.000000,0.000000,0.000000,0,0.999763,0.000000,0.000000,0.000000,0.000000,0.000000,0.000000,-1.812971,1.540228,1.812971,-1.540228,0.000000,0,0
15095,0.404213,0.005900,0.019901,-0.914429,0.000000,0.000000,0.000000,0.026000,0.031000,-0.995000,3,19,1,19,37.5417963,127.0795495,42.602,0.676000,1.748000,-0.005000,-0.028000,-0.021000,0.130000,1000,1000,1000,1000,1000.000000,0,0,0,0,0,1,0,0,0,3388,0.000000,0,0.000000,0.000000,0.000000,0.000000,0.000000,0.000000,0.000000,0.000000,0.000000,0.000000,0.000000,0.000000,0.000000,0.000000,0.000000,0.000000,0.000000,0.000000,0.000000,0.000000,0.000000,0.000000,0.000000,0.000000,0.000000,0.000000,0.000000,0.000000,0.000000,0.000000,0.000000,9.765680,0.000000,0.000000,0.000000,0.000000,0.000000,0.000000,0.000000,0.000000,0.000000,0.000000,0.000000,0.000000,0.000000,0.000000,0.000000,0.000000,0.000000,0.000000,0.000000,0.000000,0.000000,0.000000,0.000000,0.000000,0.000000,0.000000,0.000000,0.000000,0.000000,0.000000,0.000000,0.000000,0.000000,0,0,0,0,0,0.000000,0,0,0,1,0,0,0.000000,0.000000,0.000000,0.000000,0.000000,0.000000,0,0.995822,0.000000,0.000000,0.000000,0.000000,0.000000,0.000000,-1.812971,1.540228,1.812971,-1.540228,0.000000,0,0
15143,0.404213,0.005900,0.019901,-0.914429,0.000000,0.000000,0.000000,0.027000,0.031000,-0.997000,3,19,1,19,37.5417963,127.0795495,42.602,0.676000,1.748000,-0.005000,-0.028000,-0.021000,0.130000,1000,1000,1000,1000,1000.000000,0,0,0,0,0,1,0,0,0,3435,0.000000,0,0.000000,0.000000,0.000000,0.000000,0.000000,0.000000,0.000000,0.000000,0.000000,0.000000,0.000000,0.000000,0.000000,0.000000,0.000000,0.000000,0.000000,0.000000,0.000000,0.000000,0.000000,0.000000,0.000000,0.000000,0.000000,0.000000,0.000000,0.000000,0.000000,0.000000,0.000000,9.785538,0.000000,0.000000,0.000000,0.000000,0.000000,0.000000,0.000000,0.000000,0.000000,0.000000,0.000000,0.000000,0.000000,0.000000,0.000000,0.000000,0.000000,0.000000,0.000000,0.000000,0.000000,0.000000,0.000000,0.000000,0.000000,0.000000,0.000000,0.000000,0.000000,0.000000,0.000000,0.000000,0.000000,0,0,0,0,0,0.000000,0,0,0,1,0,0,0.000000,0.000000,0.000000,0.000000,0.000000,0.000000,0,0.997847,0.000000,0.000000,0.000000,0.000000,0.000000,0.000000,-1.812971,1.540228,1.812971,-1.540228,0.000000,0,0
15170,0.404213,0.005900,0.019901,-0.914429,0.000000,0.000000,0.000000,0.025000,0.031000,-0.997000,3,19,1,19,37.5417963,127.0795495,42.602,0.676000,1.748000,-0.005000,-0.028000,-0.021000,0.130000,1000,1000,1000,1000,1000.000000,0,0,0,0,0,1,0,0,0,3463,0.000000,0,0.000000,0.000000,0.000000,0.000000,0.000000,0.000000,0.000000,0.000000,0.000000,0.000000,0.000000,0.000000,0.000000,0.000000,0.000000,0.000000,0.000000,0.000000,0.000000,0.000000,0.000000,0.000000,0.000000,0.000000,0.000000,0.000000,0.000000,0.000000,0.000000,0.000000,0.000000,9.785027,0.000000,0.000000,0.000000,0.000000,0.000000,0.000000,0.000000,0.000000,0.000000,0.000000,0.000000,0.000000,0.000000,0.000000,0.000000,0.000000,0.000000,0.000000,0.000000,0.000000,0.000000,0.000000,0.000000,0.000000,0.000000,0.000000,0.000000,0.000000,0.000000,0.000000,0.000000,0.000000,0.000000,0,0,0,0,0,0.000000,0,0,0,1,0,0,0.000000,0.000000,0.000000,0.000000,0.000000,0.000000,0,0.997795,0.000000,0.000000,0.000000,0.000000,0.000000,0.000000,-1.812971,1.540228,1.812971,-1.540228,0.000000,0,0
15214,0.404213,0.005900,0.019901,-0.914429,0.000000,0.000000,0.000000,0.026000,0.030000,-0.996000,3,19,1,19,37.5417963,127.0795495,42.611,0.672000,1.737000,0.013000,0.024000,-0.017000,0.118000,1000,1000,1000,1000,1000.000000,0,0,0,0,0,1,0,0,0,3507,0.000000,0,0.000000,0.000000,0.000000,0.000000,0.000000,0.000000,0.000000,0.000000,0.000000,0.000000,0.000000,0.000000,0.000000,0.000000,0.000000,0.000000,0.000000,0.000000,0.000000,0.000000,0.000000,0.000000,0.000000,0.000000,0.000000,0.000000,0.000000,0.000000,0.000000,0.000000,0.000000,9.775179,0.000000,0.000000,0.000000,0.000000,0.000000,0.000000,0.000000,0.000000,0.000000,0.000000,0.000000,0.000000,0.000000,0.000000,0.000000,0.000000,0.000000,0.000000,0.000000,0.000000,0.000000,0.000000,0.000000,0.000000,0.000000,0.000000,0.000000,0.000000,0.000000,0.000000,0.000000,0.000000,0.000000,0,0,0,0,0,0.000000,0,0,0,1,0,0,0.000000,0.000000,0.000000,0.000000,0.000000,0.000000,0,0.996791,0.000000,0.000000,0.000000,0.000000,0.000000,0.000000,-1.812971,1.540228,1.812971,-1.540228,0.000000,0,0
15258,0.404213,0.005900,0.019901,-0.914429,0.000000,0.000000,0.000000,0.027000,0.030000,-0.995000,3,19,1,19,37.5417963,127.0795495,42.611,0.672000,1.737000,0.013000,0.024000,-0.017000,0.118000,1000,1000,1000,1000,1000.000000,0,0,0,0,0,1,0,0,0,3551,0.000000,0,0.000000,0.000000,0.000000,0.000000,0.000000,0.000000,0.000000,0.000000,0.000000,0.000000,0.000000,0.000000,0.000000,0.000000,0.000000,0.000000,0.000000,0.000000,0.000000,0.000000,0.000000,0.000000,0.000000,0.000000,0.000000,0.000000,0.000000,0.000000,0.000000,0.000000,0.000000,9.765641,0.000000,0.000000,0.000000,0.000000,0.000000,0.000000,0.000000,0.000000,0.000000,0.000000,0.000000,0.000000,0.000000,0.000000,0.000000,0.000000,0.000000,0.000000,0.000000,0.000000,0.000000,0.000000,0.000000,0.000000,0.000000,0.000000,0.000000,0.000000,0.000000,0.000000,0.000000,0.000000,0.000000,0,0,0,0,0,0.000000,0,0,0,1,0,0,0.000000,0.000000,0.000000,0.000000,0.000000,0.000000,0,0.995818,0.000000,0.000000,0.000000,0.000000,0.000000,0.000000,-1.812971,1.540228,1.812971,-1.540228,0.000000,0,0
15318,0.404213,0.005900,0.019901,-0.914429,0.000000,0.000000,0.000000,0.029000,0.029000,-0.998000,3,19,1,19,37.5417963,127.0795495,42.611,0.672000,1.737000,0.013000,0.024000,-0.017000,0.118000,1000,1000,1000,1000,1000.000000,0,0,0,0,0,1,0,0,0,3611,0.000000,0,0.000000,0.000000,0.000000,0.000000,0.000000,0.000000,0.000000,0.000000,0.000000,0.000000,0.000000,0.000000,0.000000,0.000000,0.000000,0.000000,0.000000,0.000000,0.000000,0.000000,0.000000,0.000000,0.000000,0.000000,0.000000,0.000000,0.000000,0.000000,0.000000,0.000000,0.000000,9.795298,0.000000,0.000000,0.000000,0.000000,0.000000,0.000000,0.000000,0.000000,0.000000,0.000000,0.000000,0.000000,0.000000,0.000000,0.000000,0.000000,0.000000,0.000000,0.000000,0.000000,0.000000,0.000000,0.000000,0.000000,0.000000,0.000000,0.000000,0.000000,0.000000,0.000000,0.000000,0.000000,0.000000,0,0,0,0,0,0.000000,0,0,0,1,0,0,0.000000,0.000000,0.000000,0.000000,0.000000,0.000000,0,0.998842,0.000000,0.000000,0.000000,0.000000,0.000000,0.000000,-1.812971,1.540228,1.812971,-1.540228,0.000000,0,0
15343,0.404213,0.005900,0.019901,-0.914429,0.000000,0.000000,0.000000,0.027000,0.028000,-1.001000,3,19,1,19,37.5417963,127.0795494,42.632,0.669000,1.726000,-0.002000,-0.007000,-0.027000,0.147000,1000,1000,1000,1000,1000.000000,0,0,0,0,0,1,0,0,0,3635,0.000000,0,0.000000,0.000000,0.000000,0.000000,0.000000,0.000000,0.000000,0.000000,0.000000,0.000000,0.000000,0.000000,0.000000,0.000000,0.000000,0.000000,0.000000,0.000000,0.000000,0.000000,0.000000,0.000000,0.000000,0.000000,0.000000,0.000000,0.000000,0.000000,0.000000,0.000000,0.000000,9.823866,0.000000,0.000000,0.000000,0.000000,0.000000,0.000000,0.000000,0.000000,0.000000,0.000000,0.000000,0.000000,0.000000,0.000000,0.000000,0.000000,0.000000,0.000000,0.000000,0.000000,0.000000,0.000000,0.000000,0.000000,0.000000,0.000000,0.000000,0.000000,0.000000,0.000000,0.000000,0.000000,0.000000,0,0,0,0,0,0.000000,0,0,0,1,0,0,0.000000,0.000000,0.000000,0.000000,0.000000,0.000000,0,1.001755,0.000000,0.000000,0.000000,0.000000,0.000000,0.000000,-1.812971,1.540228,1.812971,-1.540228,0.000000,0,0
15373,0.404213,0.005900,0.019901,-0.914429,0.000000,0.000000,0.000000,0.028000,0.029000,-0.997000,3,19,1,19,37.5417963,127.0795494,42.632,0.669000,1.726000,-0.002000,-0.007000,-0.027000,0.147000,1000,1000,1000,1000,1000.000000,0,0,0,0,0,1,0,0,0,3666,0.000000,0,0.000000,0.000000,0.000000,0.000000,0.000000,0.000000,0.000000,0.000000,0.000000,0.000000,0.000000,0.000000,0.000000,0.000000,0.000000,0.000000,0.000000,0.000000,0.000000,0.000000,0.000000,0.000000,0.000000,0.000000,0.000000,0.000000,0.000000,0.000000,0.000000,0.000000,0.000000,9.785218,0.000000,0.000000,0.000000,0.000000,0.000000,0.000000,0.000000,0.000000,0.000000,0.000000,0.000000,0.000000,0.000000,0.000000,0.000000,0.000000,0.000000,0.000000,0.000000,0.000000,0.000000,0.000000,0.000000,0.000000,0.000000,0.000000,0.000000,0.000000,0.000000,0.000000,0.000000,0.000000,0.000000,0,0,0,0,0,0.000000,0,0,0,1,0,0,0.000000,0.000000,0.000000,0.000000,0.000000,0.000000,0,0.997815,0.000000,0.000000,0.000000,0.000000,0.000000,0.000000,-1.812971,1.540228,1.812971,-1.540228,0.000000,0,0
15417,0.404213,0.005900,0.019901,-0.914429,0.000000,0.000000,0.000000,0.027000,0.032000,-0.996000,3,19,1,19,37.5417963,127.0795494,42.632,0.669000,1.726000,-0.002000,-0.007000,-0.027000,0.147000,1000,1000,1000,1000,1000.000000,0,0,0,0,0,1,0,0,0,3710,0.000000,0,0.000000,0.000000,0.000000,0.000000,0.000000,0.000000,0.000000,0.000000,0.000000,0.000000,0.000000,0.000000,0.000000,0.000000,0.000000,0.000000,0.000000,0.000000,0.000000,0.000000,0.000000,0.000000,0.000000,0.000000,0.000000,0.000000,0.000000,0.000000,0.000000,0.000000,0.000000,9.776050,0.000000,0.000000,0.000000,0.000000,0.000000,0.000000,0.000000,0.000000,0.000000,0.000000,0.000000,0.000000,0.000000,0.000000,0.000000,0.000000,0.000000,0.000000,0.000000,0.000000,0.000000,0.000000,0.000000,0.000000,0.000000,0.000000,0.000000,0.000000,0.000000,0.000000,0.000000,0.000000,0.000000,0,0,0,0,0,0.000000,0,0,0,1,0,0,0.000000,0.000000,0.000000,0.000000,0.000000,0.000000,0,0.996880,0.000000,0.000000,0.000000,0.000000,0.000000,0.000000,-1.812971,1.540228,1.812971,-1.540228,0.000000,0,0
15443,0.404213,0.005900,0.019901,-0.914429,0.000000,0.000000,0.000000,0.028000,0.030000,-0.998000,3,19,1,19,37.5417963,127.0795494,42.632,0.669000,1.726000,-0.002000,-0.007000,-0.027000,0.147000,1000,1000,1000,1000,1000.000000,0,0,0,0,0,1,0,0,0,3735,0.000000,0,0.000000,0.000000,0.000000,0.000000,0.000000,0.000000,0.000000,0.000000,0.000000,0.000000,0.000000,0.000000,0.000000,0.000000,0.000000,0.000000,0.000000,0.000000,0.000000,0.000000,0.000000,0.000000,0.000000,0.000000,0.000000,0.000000,0.000000,0.000000,0.000000,0.000000,0.000000,9.795307,0.000000,0.000000,0.000000,0.000000,0.000000,0.000000,0.000000,0.000000,0.000000,0.000000,0.000000,0.000000,0.000000,0.000000,0.000000,0.000000,0.000000,0.000000,0.000000,0.000000,0.000000,0.000000,0.000000,0.000000,0.000000,0.000000,0.000000,0.000000,0.000000,0.000000,0.000000,0.000000,0.000000,0,0,0,0,0,0.000000,0,0,0,1,0,0,0.000000,0.000000,0.000000,0.000000,0.000000,0.000000,0,0.998843,0.000000,0.000000,0.000000,0.000000,0.000000,0.000000,-1.812971,1.540228,1.812971,-1.540228,0.000000,0,0
15486,0.404213,0.005900,0.019901,-0.914429,0.000000,0.000000,0.000000,0.027000,0.031000,-0.997000,3,18,1,18,37.5417963,127.0795493,42.620,0.666000,1.716000,-0.025000,0.018000,-0.028000,0.145000,1000,1000,1000,1000,1000.000000,0,0,0,0,0,1,0,0,0,3779,0.000000,0,0.000000,0.000000,0.000000,0.000000,0.000000,0.000000,0.000000,0.000000,0.000000,0.000000,0.000000,0.000000,0.000000,0.000000,0.000000,0.000000,0.000000,0.000000,0.000000,0.000000,0.000000,0.000000,0.000000,0.000000,0.000000,0.000000,0.000000,0.000000,0.000000,0.000000,0.000000,9.785538,0.000000,0.000000,0.000000,0.000000,0.000000,0.000000,0.000000,0.000000,0.000000,0.000000,0.000000,0.000000,0.000000,0.000000,0.000000,0.000000,0.000000,0.000000,0.000000,0.000000,0.000000,0.000000,0.000000,0.000000,0.000000,0.000000,0.000000,0.000000,0.000000,0.000000,0.000000,0.000000,0.000000,0,0,0,0,0,0.000000,0,0,0,1,0,0,0.000000,0.000000,0.000000,0.000000,0.000000,0.000000,0,0.997847,0.000000,0.000000,0.000000,0.000000,0.000000,0.000000,-1.812971,1.540228,1.812971,-1.540228,0.000000,0,0
15533,0.404213,0.005900,0.019901,-0.914429,0.000000,0.000000,0.000000,0.027000,0.035000,-0.999000,3,18,1,18,37.5417963,127.0795493,42.620,0.666000,1.716000,-0.025000,0.018000,-0.028000,0.145000,1000,1000,1000,1000,1000.000000,0,0,0,0,0,1,0,0,0,3826,0.000000,0,0.000000,0.000000,0.000000,0.000000,0.000000,0.000000,0.000000,0.000000,0.000000,0.000000,0.000000,0.000000,0.000000,0.000000,0.000000,0.000000,0.000000,0.000000,0.000000,0.000000,0.000000,0.000000,0.000000,0.000000,0.000000,0.000000,0.000000,0.000000,0.000000,0.000000,0.000000,9.806430,0.000000,0.000000,0.000000,0.000000,0.000000,0.000000,0.000000,0.000000,0.000000,0.000000,0.000000,0.000000,0.000000,0.000000,0.000000,0.000000,0.000000,0.000000,0.000000,0.000000,0.000000,0.000000,0.000000,0.000000,0.000000,0.000000,0.000000,0.000000,0.000000,0.000000,0.000000,0.000000,0.000000,0,0,0,0,0,0.000000,0,0,0,1,0,0,0.000000,0.000000,0.000000,0.000000,0.000000,0.000000,0,0.999978,0.000000,0.000000,0.000000,0.000000,0.000000,0.000000,-1.812971,1.540228,1.812971,-1.540228,0.000000,0,0
15602,0.404213,0.005900,0.019901,-0.914429,0.000000,0.000000,0.000000,0.029000,0.029000,-0.996000,3,18,1,18,37.5417964,127.0795491,42.614,0.662000,1.706000,0.012000,-0.027000,-0.037000,0.125000,1000,1000,1000,1000,1000.000000,0,0,0,0,0,1,0,0,0,3895,0.000000,0,0.000000,0.000000,0.000000,0.000000,0.000000,0.000000,0.000000,0.000000,0.000000,0.000000,0.000000,0.000000,0.000000,0.000000,0.000000,0.000000,0.000000,0.000000,0.000000,0.000000,0.000000,0.000000,0.000000,0.000000,0.000000,0.000000,0.000000,0.000000,0.000000,0.000000,0.000000,9.775701,0.000000,0.000000,0.000000,0.000000,0.000000,0.000000,0.000000,0.000000,0.000000,0.000000,0.000000,0.000000,0.000000,0.000000,0.000000,0.000000,0.000000,0.000000,0.000000,0.000000,0.000000,0.000000,0.000000,0.000000,0.000000,0.000000,0.000000,0.000000,0.000000,0.000000,0.000000,0.000000,0.000000,0,0,0,0,0,0.000000,0,0,0,1,0,0,0.000000,0.000000,0.000000,0.000000,0.000000,0.000000,0,0.996844,0.000000,0.000000,0.000000,0.000000,0.000000,0.000000,-1.812971,1.540228,1.812971,-1.540228,0.000000,0,0
15629,0.404213,0.005900,0.019901,-0.914429,0.000000,0.000000,0.000000,0.026000,0.035000,-0.998000,3,18,1,18,37.5417964,127.0795491,42.614,0.662000,1.706000,0.012000,-0.027000,-0.037000,0.125000,1000,1000,1000,1000,1000.000000,0,0,0,0,0,1,0,0,0,3922,0.000000,0,0.000000,0.000000,0.000000,0.000000,0.000000,0.000000,0.000000,0.000000,0.000000,0.000000,0.000000,0.000000,0.000000,0.000000,0.000000,0.000000,0.000000,0.000000,0.000000,0.000000,0.000000,0.000000,0.000000,0.000000,0.000000,0.000000,0.000000,0.000000,0.000000,0.000000,0.000000,9.796372,0.000000,0.000000,0.000000,0.000000,0.000000,0.000000,0.000000,0.000000,0.000000,0.000000,0.000000,0.000000,0.000000,0.000000,0.000000,0.000000,0.000000,0.000000,0.000000,0.000000,0.000000,0.000000,0.000000,0.000000,0.000000,0.000000,0.000000,0.000000,0.000000,0.000000,0.000000,0.000000,0.000000,0,0,0,0,0,0.000000,0,0,0,1,0,0,0.000000,0.000000,0.000000,0.000000,0.000000,0.000000,0,0.998952,0.000000,0.000000,0.000000,0.000000,0.000000,0.000000,-1.812971,1.540228,1.812971,-1.540228,0.000000,0,0
15653,0.404213,0.005900,0.019901,-0.914429,0.000000,0.000000,0.000000,0.027000,0.028000,-0.995000,3,18,1,18,37.5417964,127.0795491,42.614,0.662000,1.706000,0.012000,-0.027000,-0.037000,0.125000,1000,1000,1000,1000,1000.000000,0,0,0,0,0,1,0,0,0,3946,0.000000,0,0.000000,0.000000,0.000000,0.000000,0.000000,0.000000,0.000000,0.000000,0.000000,0.000000,0.000000,0.000000,0.000000,0.000000,0.000000,0.000000,0.000000,0.000000,0.000000,0.000000,0.000000,0.000000,0.000000,0.000000,0.000000,0.000000,0.000000,0.000000,0.000000,0.000000,0.000000,9.765070,0.000000,0.000000,0.000000,0.000000,0.000000,0.000000,0.000000,0.000000,0.000000,0.000000,0.000000,0.000000,0.000000,0.000000,0.000000,0.000000,0.000000,0.000000,0.000000,0.000000,0.000000,0.000000,0.000000,0.000000,0.000000,0.000000,0.000000,0.000000,0.000000,0.000000,0.000000,0.000000,0.000000,0,0,0,0,0,0.000000,0,0,0,1,0,0,0.000000,0.000000,0.000000,0.000000,0.000000,0.000000,0,0.995760,0.000000,0.000000,0.000000,0.000000,0.000000,0.000000,-1.812971,1.540228,1.812971,-1.540228,0.000000,0,0
15697,0.404213,0.005900,0.019901,-0.914429,0.000000,0.000000,0.000000,0.028000,0.028000,-0.997000,3,18,1,18,37.5417964,127.0795491,42.614,0.662000,1.706000,0.012000,-0.027000,-0.037000,0.125000,1000,1000,1000,1000,1000.000000,0,0,0,0,0,1,0,0,0,3990,0.000000,0,0.000000,0.000000,0.000000,0.000000,0.000000,0.000000,0.000000,0.000000,0.000000,0.000000,0.000000,0.000000,0.000000,0.000000,0.000000,0.000000,0.000000,0.000000,0.000000,0.000000,0.000000,0.000000,0.000000,0.000000,0.000000,0.000000,0.000000,0.000000,0.000000,0.000000,0.000000,9.784939,0.000000,0.000000,0.000000,0.000000,0.000000,0.000000,0.000000,0.000000,0.000000,0.000000,0.000000,0.000000,0.000000,0.000000,0.000000,0.000000,0.000000,0.000000,0.000000,0.000000,0.000000,0.000000,0.000000,0.000000,0.000000,0.000000,0.000000,0.000000,0.000000,0.000000,0.000000,0.000000,0.000000,0,0,0,0,0,0.000000,0,0,0,1,0,0,0.000000,0.000000,0.000000,0.000000,0.000000,0.000000,0,0.997786,0.000000,0.000000,0.000000,0.000000,0.000000,0.000000,-1.812971,1.540228,1.812971,-1.540228,0.000000,0,0
15762,0.404213,0.005900,0.019901,-0.914429,0.000000,0.000000,0.000000,0.027000,0.030000,-0.999000,3,18,1,18,37.5417965,127.0795490,42.565,0.659000,1.698000,-0.011000,0.037000,-0.032000,0.143000,1000,1000,1000,1000,1000.000000,0,0,0,0,0,1,0,0,0,4055,0.000000,0,0.000000,0.000000,0.000000,0.000000,0.000000,0.000000,0.000000,0.000000,0.000000,0.000000,0.000000,0.000000,0.000000,0.000000,0.000000,0.000000,0.000000,0.000000,0.000000,0.000000,0.000000,0.000000,0.000000,0.000000,0.000000,0.000000,0.000000,0.000000,0.000000,0.000000,0.000000,9.804836,0.000000,0.000000,0.000000,0.000000,0.000000,0.000000,0.000000,0.000000,0.000000,0.000000,0.000000,0.000000,0.000000,0.000000,0.000000,0.000000,0.000000,0.000000,0.000000,0.000000,0.000000,0.000000,0.000000,0.000000,0.000000,0.000000,0.000000,0.000000,0.000000,0.000000,0.000000,0.000000,0.000000,0,0,0,0,0,0.000000,0,0,0,1,0,0,0.000000,0.000000,0.000000,0.000000,0.000000,0.000000,0,0.999815,0.000000,0.000000,0.000000,0.000000,0.000000,0.000000,-1.812971,1.540228,1.812971,-1.540228,0.000000,0,0
15786,0.404213,0.005900,0.019901,-0.914429,0.000000,0.000000,0.000000,0.027000,0.032000,-1.000000,3,18,1,18,37.5417965,127.0795490,42.565,0.659000,1.698000,-0.011000,0.037000,-0.032000,0.143000,1000,1000,1000,1000,1000.000000,0,0,0,0,0,1,0,0,0,4079,0.000000,0,0.000000,0.000000,0.000000,0.000000,0.000000,0.000000,0.000000,0.000000,0.000000,0.000000,0.000000,0.000000,0.000000,0.000000,0.000000,0.000000,0.000000,0.000000,0.000000,0.000000,0.000000,0.000000,0.000000,0.000000,0.000000,0.000000,0.000000,0.000000,0.000000,0.000000,0.000000,9.815242,0.000000,0.000000,0.000000,0.000000,0.000000,0.000000,0.000000,0.000000,0.000000,0.000000,0.000000,0.000000,0.000000,0.000000,0.000000,0.000000,0.000000,0.000000,0.000000,0.000000,0.000000,0.000000,0.000000,0.000000,0.000000,0.000000,0.000000,0.000000,0.000000,0.000000,0.000000,0.000000,0.000000,0,0,0,0,0,0.000000,0,0,0,1,0,0,0.000000,0.000000,0.000000,0.000000,0.000000,0.000000,0,1.000876,0.000000,0.000000,0.000000,0.000000,0.000000,0.000000,-1.812971,1.540228,1.812971,-1.540228,0.000000,0,0
15813,0.404213,0.005900,0.019901,-0.914429,0.000000,0.000000,0.000000,0.027000,0.033000,-0.996000,3,18,1,18,37.5417965,127.0795490,42.565,0.659000,1.698000,-0.011000,0.037000,-0.032000,0.143000,1000,1000,1000,1000,1000.000000,0,0,0,0,0,1,0,0,0,4106,0.000000,0,0.000000,0.000000,0.000000,0.000000,0.000000,0.000000,0.000000,0.000000,0.000000,0.000000,0.000000,0.000000,0.000000,0.000000,0.000000,0.000000,0.000000,0.000000,0.000000,0.000000,0.000000,0.000000,0.000000,0.000000,0.000000,0.000000,0.000000,0.000000,0.000000,0.000000,0.000000,9.776370,0.000000,0.000000,0.000000,0.000000,0.000000,0.000000,0.000000,0.000000,0.000000,0.000000,0.000000,0.000000,0.000000,0.000000,0.000000,0.000000,0.000000,0.000000,0.000000,0.000000,0.000000,0.000000,0.000000,0.000000,0.000000,0.000000,0.000000,0.000000,0.000000,0.000000,0.000000,0.000000,0.000000,0,0,0,0,0,0.000000,0,0,0,1,0,0,0.000000,0.000000,0.000000,0.000000,0.000000,0.000000,0,0.996912,0.000000,0.000000,0.000000,0.000000,0.000000,0.000000,-1.812971,1.540228,1.812971,-1.540228,0.000000,0,0
15857,0.404213,0.005900,0.019901,-0.914429,0.000000,0.000000,0.000000,0.026000,0.028000,-0.998000,3,18,1,18,37.5417966,127.0795489,42.521,0.656000,1.690000,-0.001000,-0.003000,-0.018000,0.147000,1000,1000,1000,1000,1000.000000,0,0,0,0,0,1,0,0,0,4150,0.000000,0,0.000000,0.000000,0.000000,0.000000,0.000000,0.000000,0.000000,0.000000,0.000000,0.000000,0.000000,0.000000,0.000000,0.000000,0.000000,0.000000,0.000000,0.000000,0.000000,0.000000,0.000000,0.000000,0.000000,0.000000,0.000000,0.000000,0.000000,0.000000,0.000000,0.000000,0.000000,9.794208,0.000000,0.000000,0.000000,0.000000,0.000000,0.000000,0.000000,0.000000,0.000000,0.000000,0.000000,0.000000,0.000000,0.000000,0.000000,0.000000,0.000000,0.000000,0.000000,0.000000,0.000000,0.000000,0.000000,0.000000,0.000000,0.000000,0.000000,0.000000,0.000000,0.000000,0.000000,0.000000,0.000000,0,0,0,0,0,0.000000,0,0,0,1,0,0,0.000000,0.000000,0.000000,0.000000,0.000000,0.000000,0,0.998731,0.000000,0.000000,0.000000,0.000000,0.000000,0.000000,-1.812971,1.540228,1.812971,-1.540228,0.000000,0,0
15884,0.404213,0.005900,0.019901,-0.914429,0.000000,0.000000,0.000000,0.027000,0.032000,-0.997000,3,18,1,18,37.5417966,127.0795489,42.521,0.656000,1.690000,-0.001000,-0.003000,-0.018000,0.147000,1000,1000,1000,1000,1000.000000,0,0,0,0,0,1,0,0,0,4177,0.000000,0,0.000000,0.000000,0.000000,0.000000,0.000000,0.000000,0.000000,0.000000,0.000000,0.000000,0.000000,0.000000,0.000000,0.000000,0.000000,0.000000,0.000000,0.000000,0.000000,0.000000,0.000000,0.000000,0.000000,0.000000,0.000000,0.000000,0.000000,0.000000,0.000000,0.000000,0.000000,9.785848,0.000000,0.000000,0.000000,0.000000,0.000000,0.000000,0.000000,0.000000,0.000000,0.000000,0.000000,0.000000,0.000000,0.000000,0.000000,0.000000,0.000000,0.000000,0.000000,0.000000,0.000000,0.000000,0.000000,0.000000,0.000000,0.000000,0.000000,0.000000,0.000000,0.000000,0.000000,0.000000,0.000000,0,0,0,0,0,0.000000,0,0,0,1,0,0,0.000000,0.000000,0.000000,0.000000,0.000000,0.000000,0,0.997879,0.000000,0.000000,0.000000,0.000000,0.000000,0.000000,-1.812971,1.540228,1.812971,-1.540228,0.000000,0,0
15928,0.404213,0.005900,0.019901,-0.914429,0.000000,0.000000,0.000000,0.026000,0.031000,-0.998000,3,18,1,18,37.5417966,127.0795489,42.521,0.656000,1.690000,-0.001000,-0.003000,-0.018000,0.147000,1000,1000,1000,1000,1000.000000,0,0,0,0,0,1,0,0,0,4221,0.000000,0,0.000000,0.000000,0.000000,0.000000,0.000000,0.000000,0.000000,0.000000,0.000000,0.000000,0.000000,0.000000,0.000000,0.000000,0.000000,0.000000,0.000000,0.000000,0.000000,0.000000,0.000000,0.000000,0.000000,0.000000,0.000000,0.000000,0.000000,0.000000,0.000000,0.000000,0.000000,9.795076,0.000000,0.000000,0.000000,0.000000,0.000000,0.000000,0.000000,0.000000,0.000000,0.000000,0.000000,0.000000,0.000000,0.000000,0.000000,0.000000,0.000000,0.000000,0.000000,0.000000,0.000000,0.000000,0.000000,0.000000,0.000000,0.000000,0.000000,0.000000,0.000000,0.000000,0.000000,0.000000,0.000000,0,0,0,0,0,0.000000,0,0,0,1,0,0,0.000000,0.000000,0.000000,0.000000,0.000000,0.000000,0,0.998820,0.000000,0.000000,0.000000,0.000000,0.000000,0.000000,-1.812971,1.540228,1.812971,-1.540228,0.000000,0,0
15972,0.404213,0.005900,0.019901,-0.914429,0.000000,0.000000,0.000000,0.026000,0.031000,-0.998000,3,18,1,18,37.5417965,127.0795488,42.513,0.653000,1.681000,-0.025000,0.024000,-0.027000,0.140000,1000,1000,1000,1000,1000.000000,0,0,0,0,0,1,0,0,0,4265,0.000000,0,0.000000,0.000000,0.000000,0.000000,0.000000,0.000000,0.000000,0.000000,0.000000,0.000000,0.000000,0.000000,0.000000,0.000000,0.000000,0.000000,0.000000,0.000000,0.000000,0.000000,0.000000,0.000000,0.000000,0.000000,0.000000,0.000000,0.000000,0.000000,0.000000,0.000000,0.000000,9.795076,0.000000,0.000000,0.000000,0.000000,0.000000,0.000000,0.000000,0.000000,0.000000,0.000000,0.000000,0.000000,0.000000,0.000000,0.000000,0.000000,0.000000,0.000000,0.000000,0.000000,0.000000,0.000000,0.000000,0.000000,0.000000,0.000000,0.000000,0.000000,0.000000,0.000000,0.000000,0.000000,0.000000,0,0,0,0,0,0.000000,0,0,0,1,0,0,0.000000,0.000000,0.000000,0.000000,0.000000,0.000000,0,0.998820,0.000000,0.000000,0.000000,0.000000,0.000000,0.000000,-1.812971,1.540228,1.812971,-1.540228,0.000000,0,0
16016,0.404213,0.005900,0.019901,-0.914429,0.000000,0.000000,0.000000,0.027000,0.031000,-0.997000,3,18,1,18,37.5417965,127.0795488,42.513,0.653000,1.681000,-0.025000,0.024000,-0.027000,0.140000,1000,1000,1000,1000,1000.000000,0,0,0,0,0,1,0,0,0,4309,0.000000,0,0.000000,0.000000,0.000000,0.000000,0.000000,0.000000,0.000000,0.000000,0.000000,0.000000,0.000000,0.000000,0.000000,0.000000,0.000000,0.000000,0.000000,0.000000,0.000000,0.000000,0.000000,0.000000,0.000000,0.000000,0.000000,0.000000,0.000000,0.000000,0.000000,0.000000,0.000000,9.785538,0.000000,0.000000,0.000000,0.000000,0.000000,0.000000,0.000000,0.000000,0.000000,0.000000,0.000000,0.000000,0.000000,0.000000,0.000000,0.000000,0.000000,0.000000,0.000000,0.000000,0.000000,0.000000,0.000000,0.000000,0.000000,0.000000,0.000000,0.000000,0.000000,0.000000,0.000000,0.000000,0.000000,0,0,0,0,0,0.000000,0,0,0,1,0,0,0.000000,0.000000,0.000000,0.000000,0.000000,0.000000,0,0.997847,0.000000,0.000000,0.000000,0.000000,0.000000,0.000000,-1.812971,1.540228,1.812971,-1.540228,0.000000,0,0
16082,0.404213,0.005900,0.019901,-0.914429,0.000000,0.000000,0.000000,0.027000,0.031000,-0.998000,3,18,1,18,37.5417965,127.0795487,42.504,0.651000,1.672000,-0.011000,-0.019000,-0.032000,0.141000,1000,1000,1000,1000,1000.000000,0,0,0,0,0,1,0,0,0,4375,0.000000,0,0.000000,0.000000,0.000000,0.000000,0.000000,0.000000,0.000000,0.000000,0.000000,0.000000,0.000000,0.000000,0.000000,0.000000,0.000000,0.000000,0.000000,0.000000,0.000000,0.000000,0.000000,0.000000,0.000000,0.000000,0.000000,0.000000,0.000000,0.000000,0.000000,0.000000,0.000000,9.795337,0.000000,0.000000,0.000000,0.000000,0.000000,0.000000,0.000000,0.000000,0.000000,0.000000,0.000000,0.000000,0.000000,0.000000,0.000000,0.000000,0.000000,0.000000,0.000000,0.000000,0.000000,0.000000,0.000000,0.000000,0.000000,0.000000,0.000000,0.000000,0.000000,0.000000,0.000000,0.000000,0.000000,0,0,0,0,0,0.000000,0,0,0,1,0,0,0.000000,0.000000,0.000000,0.000000,0.000000,0.000000,0,0.998846,0.000000,0.000000,0.000000,0.000000,0.000000,0.000000,-1.812971,1.540228,1.812971,-1.540228,0.000000,0,0
16106,0.404213,0.005900,0.019901,-0.914429,0.000000,0.000000,0.000000,0.026000,0.030000,-0.999000,3,18,1,18,37.5417965,127.0795487,42.504,0.651000,1.672000,-0.011000,-0.019000,-0.032000,0.141000,1000,1000,1000,1000,1000.000000,0,0,0,0,0,1,0,0,0,4399,0.000000,0,0.000000,0.000000,0.000000,0.000000,0.000000,0.000000,0.000000,0.000000,0.000000,0.000000,0.000000,0.000000,0.000000,0.000000,0.000000,0.000000,0.000000,0.000000,0.000000,0.000000,0.000000,0.000000,0.000000,0.000000,0.000000,0.000000,0.000000,0.000000,0.000000,0.000000,0.000000,9.804576,0.000000,0.000000,0.000000,0.000000,0.000000,0.000000,0.000000,0.000000,0.000000,0.000000,0.000000,0.000000,0.000000,0.000000,0.000000,0.000000,0.000000,0.000000,0.000000,0.000000,0.000000,0.000000,0.000000,0.000000,0.000000,0.000000,0.000000,0.000000,0.000000,0.000000,0.000000,0.000000,0.000000,0,0,0,0,0,0.000000,0,0,0,1,0,0,0.000000,0.000000,0.000000,0.000000,0.000000,0.000000,0,0.999789,0.000000,0.000000,0.000000,0.000000,0.000000,0.000000,-1.812971,1.540228,1.812971,-1.540228,0.000000,0,0
16130,0.404213,0.005900,0.019901,-0.914429,0.000000,0.000000,0.000000,0.026000,0.031000,-0.998000,3,18,1,18,37.5417965,127.0795487,42.504,0.651000,1.672000,-0.011000,-0.019000,-0.032000,0.141000,1000,1000,1000,1000,1000.000000,0,0,0,0,0,1,0,0,0,4423,0.000000,0,0.000000,0.000000,0.000000,0.000000,0.000000,0.000000,0.000000,0.000000,0.000000,0.000000,0.000000,0.000000,0.000000,0.000000,0.000000,0.000000,0.000000,0.000000,0.000000,0.000000,0.000000,0.000000,0.000000,0.000000,0.000000,0.000000,0.000000,0.000000,0.000000,0.000000,0.000000,9.795076,0.000000,0.000000,0.000000,0.000000,0.000000,0.000000,0.000000,0.000000,0.000000,0.000000,0.000000,0.000000,0.000000,0.000000,0.000000,0.000000,0.000000,0.000000,0.000000,0.000000,0.000000,0.000000,0.000000,0.000000,0.000000,0.000000,0.000000,0.000000,0.000000,0.000000,0.000000,0.000000,0.000000,0,0,0,0,0,0.000000,0,0,0,1,0,0,0.000000,0.000000,0.000000,0.000000,0.000000,0.000000,0,0.998820,0.000000,0.000000,0.000000,0.000000,0.000000,0.000000,-1.812971,1.540228,1.812971,-1.540228,0.000000,0,0
16174,0.404213,0.005900,0.019901,-0.914429,0.000000,0.000000,0.000000,0.027000,0.031000,-0.998000,3,18,1,18,37.5417965,127.0795487,42.504,0.651000,1.672000,-0.011000,-0.019000,-0.032000,0.141000,1000,1000,1000,1000,1000.000000,0,0,0,0,0,1,0,0,0,4467,0.000000,0,0.000000,0.000000,0.000000,0.000000,0.000000,0.000000,0.000000,0.000000,0.000000,0.000000,0.000000,0.000000,0.000000,0.000000,0.000000,0.000000,0.000000,0.000000,0.000000,0.000000,0.000000,0.000000,0.000000,0.000000,0.000000,0.000000,0.000000,0.000000,0.000000,0.000000,0.000000,9.795337,0.000000,0.000000,0.000000,0.000000,0.000000,0.000000,0.000000,0.000000,0.000000,0.000000,0.000000,0.000000,0.000000,0.000000,0.000000,0.000000,0.000000,0.000000,0.000000,0.000000,0.000000,0.000000,0.000000,0.000000,0.000000,0.000000,0.000000,0.000000,0.000000,0.000000,0.000000,0.000000,0.000000,0,0,0,0,0,0.000000,0,0,0,1,0,0,0.000000,0.000000,0.000000,0.000000,0.000000,0.000000,0,0.998846,0.000000,0.000000,0.000000,0.000000,0.000000,0.000000,-1.812971,1.540228,1.812971,-1.540228,0.000000,0,0
16218,0.404213,0.005900,0.019901,-0.914429,0.000000,0.000000,0.000000,0.027000,0.031000,-0.998000,3,18,1,18,37.5417966,127.0795485,42.485,0.648000,1.664000,-0.001000,-0.015000,-0.019000,0.134000,1000,1000,1000,1000,1000.000000,0,0,0,0,0,1,0,0,0,4511,0.000000,0,0.000000,0.000000,0.000000,0.000000,0.000000,0.000000,0.000000,0.000000,0.000000,0.000000,0.000000,0.000000,0.000000,0.000000,0.000000,0.000000,0.000000,0.000000,0.000000,0.000000,0.000000,0.000000,0.000000,0.000000,0.000000,0.000000,0.000000,0.000000,0.000000,0.000000,0.000000,9.795337,0.000000,0.000000,0.000000,0.000000,0.000000,0.000000,0.000000,0.000000,0.000000,0.000000,0.000000,0.000000,0.000000,0.000000,0.000000,0.000000,0.000000,0.000000,0.000000,0.000000,0.000000,0.000000,0.000000,0.000000,0.000000,0.000000,0.000000,0.000000,0.000000,0.000000,0.000000,0.000000,0.000000,0,0,0,0,0,0.000000,0,0,0,1,0,0,0.000000,0.000000,0.000000,0.000000,0.000000,0.000000,0,0.998846,0.000000,0.000000,0.000000,0.000000,0.000000,0.000000,-1.812971,1.540228,1.812971,-1.540228,0.000000,0,0
16243,0.404213,0.005900,0.019901,-0.914429,0.000000,0.000000,0.000000,0.027000,0.031000,-0.996000,3,18,1,18,37.5417966,127.0795485,42.485,0.648000,1.664000,-0.001000,-0.015000,-0.019000,0.134000,1000,1000,1000,1000,1000.000000,0,0,0,0,0,1,0,0,0,4535,0.000000,0,0.000000,0.000000,0.000000,0.000000,0.000000,0.000000,0.000000,0.000000,0.000000,0.000000,0.000000,0.000000,0.000000,0.000000,0.000000,0.000000,0.000000,0.000000,0.000000,0.000000,0.000000,0.000000,0.000000,0.000000,0.000000,0.000000,0.000000,0.000000,0.000000,0.000000,0.000000,9.775740,0.000000,0.000000,0.000000,0.000000,0.000000,0.000000,0.000000,0.000000,0.000000,0.000000,0.000000,0.000000,0.000000,0.000000,0.000000,0.000000,0.000000,0.000000,0.000000,0.000000,0.000000,0.000000,0.000000,0.000000,0.000000,0.000000,0.000000,0.000000,0.000000,0.000000,0.000000,0.000000,0.000000,0,0,0,0,0,0.000000,0,0,0,1,0,0,0.000000,0.000000,0.000000,0.000000,0.000000,0.000000,0,0.996848,0.000000,0.000000,0.000000,0.000000,0.000000,0.000000,-1.812971,1.540228,1.812971,-1.540228,0.000000,0,0
16293,0.404213,0.005900,0.019901,-0.914429,0.000000,0.000000,0.000000,0.026000,0.031000,-0.999000,3,18,1,18,37.5417966,127.0795485,42.485,0.648000,1.664000,-0.001000,-0.015000,-0.019000,0.134000,1000,1000,1000,1000,1000.000000,0,0,0,0,0,1,0,0,0,4586,0.000000,0,0.000000,0.000000,0.000000,0.000000,0.000000,0.000000,0.000000,0.000000,0.000000,0.000000,0.000000,0.000000,0.000000,0.000000,0.000000,0.000000,0.000000,0.000000,0.000000,0.000000,0.000000,0.000000,0.000000,0.000000,0.000000,0.000000,0.000000,0.000000,0.000000,0.000000,0.000000,9.804875,0.000000,0.000000,0.000000,0.000000,0.000000,0.000000,0.000000,0.000000,0.000000,0.000000,0.000000,0.000000,0.000000,0.000000,0.000000,0.000000,0.000000,0.000000,0.000000,0.000000,0.000000,0.000000,0.000000,0.000000,0.000000,0.000000,0.000000,0.000000,0.000000,0.000000,0.000000,0.000000,0.000000,0,0,0,0,0,0.000000,0,0,0,1,0,0,0.000000,0.000000,0.000000,0.000000,0.000000,0.000000,0,0.999819,0.000000,0.000000,0.000000,0.000000,0.000000,0.000000,-1.812971,1.540228,1.812971,-1.540228,0.000000,0,0
