timestamp_ms,qw,qx,qy,qz,gx,gy,gz,ax,ay,az,gnss_fix_type,numSV,gnss_valid,gnss_num_sats,lat,lon,hmsl,gnss_hacc_m,gnss_vacc_m,gnss_vel_n_mps,gnss_vel_e_mps,gnss_vel_d_mps,gnss_sacc_mps,M1,M2,M3,M4,ekf_pwm_mean,ekf_is_armed,ekf_ground_motor_mode,motor_output_allowed,motor_on_detected,alignment_active,alignment_done,ekf_ready,gnss_ref_set,gnss_ref_ready,gnss_ref_age_ms,ekf_dt,ekf_dt_clamped,ekf_pos_n,ekf_pos_e,ekf_pos_d,ekf_vel_n,ekf_vel_e,ekf_vel_d,ekf_p_cov_n,ekf_p_cov_e,ekf_p_cov_d,ekf_v_cov_n,ekf_v_cov_e,ekf_v_cov_d,ekf_qw,ekf_qx,ekf_qy,ekf_qz,ekf_roll_deg,ekf_pitch_deg,ekf_yaw_deg,roll_deg,pitch_deg,yaw_deg,ekf_accel_body_x,ekf_accel_body_y,ekf_accel_body_z,ekf_accel_nav_n,ekf_accel_nav_e,ekf_accel_nav_d,acc_ned_n,acc_ned_e,acc_ned_d,accel_norm,accel_bias_x,accel_bias_y,accel_bias_z,gyro_bias_x,gyro_bias_y,gyro_bias_z,ekf_bias_acc_x,ekf_bias_acc_y,ekf_bias_acc_z,ekf_bias_gyro_x,ekf_bias_gyro_y,ekf_bias_gyro_z,ekf_gnss_pos_n,ekf_gnss_pos_e,ekf_gnss_pos_d,ekf_innov_pos_n,ekf_innov_pos_e,ekf_innov_pos_d,ekf_innov_vel_n,ekf_innov_vel_e,ekf_innov_vel_d,ekf_R_applied_gnss_pos_n,ekf_R_applied_gnss_pos_e,ekf_R_applied_gnss_pos_d,ekf_R_applied_gnss_vel_n,ekf_R_applied_gnss_vel_e,ekf_R_applied_gnss_vel_d,ekf_sigma_applied_gnss_pos_n,ekf_sigma_applied_gnss_pos_e,ekf_sigma_applied_gnss_pos_d,ekf_sigma_applied_gnss_vel_n,ekf_sigma_applied_gnss_vel_e,ekf_sigma_applied_gnss_vel_d,gnss_correction_accepted,gnss_update_executed,gnss_new_measurement,gnss_velocity_used,gnss_position_gate_passed,gnss_update_dt,gnss_last_update_age_ms,gnss_innov_gate_reject_count,ekf_zupt_applied,ekf_zupt_allowed,zupt_active,stationary_detected,delta_vel_gnss_update_n,delta_vel_gnss_update_e,delta_vel_gnss_update_d,delta_vel_zupt_update_n,delta_vel_zupt_update_e,delta_vel_zupt_update_d,tether_disturbance_candidate,raw_acc_norm_g,acc_ned_h,ekf_speed_h,delta_vel_gnss_update_xy,gyro_raw_norm,gyro_lpf_norm,gyro_corrected_norm,imu_fw_roll_deg,imu_fw_pitch_deg,ekf_imu_roll_diff_deg,ekf_imu_pitch_diff_deg,pitch_diff_rate_deg_s,accel_rotation_source,accel_rotation_source_used
11602,-0.021201,-0.008700,-0.014201,0.999637,0.000000,0.000000,0.000000,0.017000,0.027000,-1.002000,3,11,1,11,37.5418102,127.0794998,34.878,0.873000,2.106000,-0.017000,-0.005000,-0.020000,0.157000,1000,1000,1000,1000,1000.000000,0,0,0,0,1,0,0,0,0,44,0.000000,0,0.000000,0.000000,0.000000,0.000000,0.000000,0.000000,0.000000,0.000000,0.000000,0.000000,0.000000,0.000000,0.000000,0.000000,0.000000,0.000000,0.000000,0.000000,0.000000,0.000000,0.000000,0.000000,0.000000,0.000000,0.000000,0.000000,0.000000,0.000000,0.000000,0.000000,0.000000,9.831244,0.000000,0.000000,0.000000,0.000000,0.000000,0.000000,0.000000,0.000000,0.000000,0.000000,0.000000,0.000000,0.000000,0.000000,0.000000,0.000000,0.000000,0.000000,0.000000,0.000000,0.000000,0.000000,0.000000,0.000000,0.000000,0.000000,0.000000,0.000000,0.000000,0.000000,0.000000,0.000000,0.000000,0,0,0,0,0,0.000000,0,0,0,1,0,0,0.000000,0.000000,0.000000,0.000000,0.000000,0.000000,0,1.002508,0.000000,0.000000,0.000000,0.000000,0.000000,0.000000,-1.606002,1.031176,1.606002,-1.031176,0.000000,0,0
11649,-0.021201,-0.008700,-0.014201,0.999637,0.000000,0.000000,0.000000,0.017000,0.027000,-1.000000,3,11,1,11,37.5418102,127.0794998,34.878,0.873000,2.106000,-0.017000,-0.005000,-0.020000,0.157000,1000,1000,1000,1000,1000.000000,0,0,0,0,1,0,0,0,0,92,0.000000,0,0.000000,0.000000,0.000000,0.000000,0.000000,0.000000,0.000000,0.000000,0.000000,0.000000,0.000000,0.000000,0.000000,0.000000,0.000000,0.000000,0.000000,0.000000,0.000000,0.000000,0.000000,0.000000,0.000000,0.000000,0.000000,0.000000,0.000000,0.000000,0.000000,0.000000,0.000000,9.811641,0.000000,0.000000,0.000000,0.000000,0.000000,0.000000,0.000000,0.000000,0.000000,0.000000,0.000000,0.000000,0.000000,0.000000,0.000000,0.000000,0.000000,0.000000,0.000000,0.000000,0.000000,0.000000,0.000000,0.000000,0.000000,0.000000,0.000000,0.000000,0.000000,0.000000,0.000000,0.000000,0.000000,0,0,0,0,0,0.000000,0,0,0,1,0,0,0.000000,0.000000,0.000000,0.000000,0.000000,0.000000,0,1.000509,0.000000,0.000000,0.000000,0.000000,0.000000,0.000000,-1.606002,1.031176,1.606002,-1.031176,0.000000,0,0
11693,-0.021201,-0.008700,-0.014201,0.999637,0.000000,0.000000,0.000000,0.018000,0.026000,-1.002000,3,11,1,11,37.5418102,127.0794998,34.899,0.867000,2.089000,-0.012000,-0.023000,-0.019000,0.133000,1000,1000,1000,1000,1000.000000,0,0,0,0,1,0,0,0,0,136,0.000000,0,0.000000,0.000000,0.000000,0.000000,0.000000,0.000000,0.000000,0.000000,0.000000,0.000000,0.000000,0.000000,0.000000,0.000000,0.000000,0.000000,0.000000,0.000000,0.000000,0.000000,0.000000,0.000000,0.000000,0.000000,0.000000,0.000000,0.000000,0.000000,0.000000,0.000000,0.000000,9.831156,0.000000,0.000000,0.000000,0.000000,0.000000,0.000000,0.000000,0.000000,0.000000,0.000000,0.000000,0.000000,0.000000,0.000000,0.000000,0.000000,0.000000,0.000000,0.000000,0.000000,0.000000,0.000000,0.000000,0.000000,0.000000,0.000000,0.000000,0.000000,0.000000,0.000000,0.000000,0.000000,0.000000,0,0,0,0,0,0.000000,0,0,0,1,0,0,0.000000,0.000000,0.000000,0.000000,0.000000,0.000000,0,1.002499,0.000000,0.000000,0.000000,0.000000,0.000000,0.000000,-1.606002,1.031176,1.606002,-1.031176,0.000000,0,0
11737,-0.021201,-0.008700,-0.014101,0.999638,0.000000,0.000000,0.000000,0.018000,0.026000,-1.001000,3,11,1,11,37.5418102,127.0794998,34.899,0.867000,2.089000,-0.012000,-0.023000,-0.019000,0.133000,1000,1000,1000,1000,1000.000000,0,0,0,0,1,0,0,0,0,180,0.000000,0,0.000000,0.000000,0.000000,0.000000,0.000000,0.000000,0.000000,0.000000,0.000000,0.000000,0.000000,0.000000,0.000000,0.000000,0.000000,0.000000,0.000000,0.000000,0.000000,0.000000,0.000000,0.000000,0.000000,0.000000,0.000000,0.000000,0.000000,0.000000,0.000000,0.000000,0.000000,9.821355,0.000000,0.000000,0.000000,0.000000,0.000000,0.000000,0.000000,0.000000,0.000000,0.000000,0.000000,0.000000,0.000000,0.000000,0.000000,0.000000,0.000000,0.000000,0.000000,0.000000,0.000000,0.000000,0.000000,0.000000,0.000000,0.000000,0.000000,0.000000,0.000000,0.000000,0.000000,0.000000,0.000000,0,0,0,0,0,0.000000,0,0,0,1,0,0,0.000000,0.000000,0.000000,0.000000,0.000000,0.000000,0,1.001499,0.000000,0.000000,0.000000,0.000000,0.000000,0.000000,-1.594545,1.030935,1.594545,-1.030935,0.005459,0,0
11765,-0.021201,-0.008700,-0.014101,0.999638,0.000000,0.000000,0.000000,0.016000,0.029000,-1.001000,3,11,1,11,37.5418102,127.0794998,34.899,0.867000,2.089000,-0.012000,-0.023000,-0.019000,0.133000,1000,1000,1000,1000,1000.000000,0,0,0,0,1,0,0,0,0,207,0.000000,0,0.000000,0.000000,0.000000,0.000000,0.000000,0.000000,0.000000,0.000000,0.000000,0.000000,0.000000,0.000000,0.000000,0.000000,0.000000,0.000000,0.000000,0.000000,0.000000,0.000000,0.000000,0.000000,0.000000,0.000000,0.000000,0.000000,0.000000,0.000000,0.000000,0.000000,0.000000,9.821829,0.000000,0.000000,0.000000,0.000000,0.000000,0.000000,0.000000,0.000000,0.000000,0.000000,0.000000,0.000000,0.000000,0.000000,0.000000,0.000000,0.000000,0.000000,0.000000,0.000000,0.000000,0.000000,0.000000,0.000000,0.000000,0.000000,0.000000,0.000000,0.000000,0.000000,0.000000,0.000000,0.000000,0,0,0,0,0,0.000000,0,0,0,1,0,0,0.000000,0.000000,0.000000,0.000000,0.000000,0.000000,0,1.001548,0.000000,0.000000,0.000000,0.000000,0.000000,0.000000,-1.594545,1.030935,1.594545,-1.030935,0.000000,0,0
11813,-0.021201,-0.008700,-0.014101,0.999638,0.000000,0.000000,0.000000,0.017000,0.028000,-1.002000,3,11,1,11,37.5418101,127.0794998,34.905,0.861000,2.074000,-0.007000,0.002000,-0.030000,0.166000,1000,1000,1000,1000,1000.000000,0,0,0,0,1,0,0,0,0,255,0.000000,0,0.000000,0.000000,0.000000,0.000000,0.000000,0.000000,0.000000,0.000000,0.000000,0.000000,0.000000,0.000000,0.000000,0.000000,0.000000,0.000000,0.000000,0.000000,0.000000,0.000000,0.000000,0.000000,0.000000,0.000000,0.000000,0.000000,0.000000,0.000000,0.000000,0.000000,0.000000,9.831513,0.000000,0.000000,0.000000,0.000000,0.000000,0.000000,0.000000,0.000000,0.000000,0.000000,0.000000,0.000000,0.000000,0.000000,0.000000,0.000000,0.000000,0.000000,0.000000,0.000000,0.000000,0.000000,0.000000,0.000000,0.000000,0.000000,0.000000,0.000000,0.000000,0.000000,0.000000,0.000000,0.000000,0,0,0,0,0,0.000000,0,0,0,1,0,0,0.000000,0.000000,0.000000,0.000000,0.000000,0.000000,0,1.002535,0.000000,0.000000,0.000000,0.000000,0.000000,0.000000,-1.594545,1.030935,1.594545,-1.030935,0.000000,0,0
11860,-0.021201,-0.008700,-0.014101,0.999638,0.000000,0.000000,0.000000,0.018000,0.027000,-1.001000,3,11,1,11,37.5418101,127.0794998,34.905,0.861000,2.074000,-0.007000,0.002000,-0.030000,0.166000,1000,1000,1000,1000,1000.000000,0,0,0,0,1,0,0,0,0,302,0.000000,0,0.000000,0.000000,0.000000,0.000000,0.000000,0.000000,0.000000,0.000000,0.000000,0.000000,0.000000,0.000000,0.000000,0.000000,0.000000,0.000000,0.000000,0.000000,0.000000,0.000000,0.000000,0.000000,0.000000,0.000000,0.000000,0.000000,0.000000,0.000000,0.000000,0.000000,0.000000,9.821614,0.000000,0.000000,0.000000,0.000000,0.000000,0.000000,0.000000,0.000000,0.000000,0.000000,0.000000,0.000000,0.000000,0.000000,0.000000,0.000000,0.000000,0.000000,0.000000,0.000000,0.000000,0.000000,0.000000,0.000000,0.000000,0.000000,0.000000,0.000000,0.000000,0.000000,0.000000,0.000000,0.000000,0,0,0,0,0,0.000000,0,0,0,1,0,0,0.000000,0.000000,0.000000,0.000000,0.000000,0.000000,0,1.001526,0.000000,0.000000,0.000000,0.000000,0.000000,0.000000,-1.594545,1.030935,1.594545,-1.030935,0.000000,0,0
11883,-0.021201,-0.008700,-0.014101,0.999638,0.000000,0.000000,0.000000,0.018000,0.026000,-1.001000,3,11,1,11,37.5418101,127.0794998,34.905,0.861000,2.074000,-0.007000,0.002000,-0.030000,0.166000,1000,1000,1000,1000,1000.000000,0,0,0,0,1,0,0,0,0,326,0.000000,0,0.000000,0.000000,0.000000,0.000000,0.000000,0.000000,0.000000,0.000000,0.000000,0.000000,0.000000,0.000000,0.000000,0.000000,0.000000,0.000000,0.000000,0.000000,0.000000,0.000000,0.000000,0.000000,0.000000,0.000000,0.000000,0.000000,0.000000,0.000000,0.000000,0.000000,0.000000,9.821355,0.000000,0.000000,0.000000,0.000000,0.000000,0.000000,0.000000,0.000000,0.000000,0.000000,0.000000,0.000000,0.000000,0.000000,0.000000,0.000000,0.000000,0.000000,0.000000,0.000000,0.000000,0.000000,0.000000,0.000000,0.000000,0.000000,0.000000,0.000000,0.000000,0.000000,0.000000,0.000000,0.000000,0,0,0,0,0,0.000000,0,0,0,1,0,0,0.000000,0.000000,0.000000,0.000000,0.000000,0.000000,0,1.001499,0.000000,0.000000,0.000000,0.000000,0.000000,0.000000,-1.594545,1.030935,1.594545,-1.030935,0.000000,0,0
11945,-0.021201,-0.008700,-0.014101,0.999638,0.000000,0.000000,0.000000,0.017000,0.027000,-1.000000,3,11,1,11,37.5418101,127.0794999,34.914,0.855000,2.058000,-0.018000,0.019000,-0.038000,0.164000,1000,1000,1000,1000,1000.000000,0,0,0,0,1,0,0,0,0,388,0.000000,0,0.000000,0.000000,0.000000,0.000000,0.000000,0.000000,0.000000,0.000000,0.000000,0.000000,0.000000,0.000000,0.000000,0.000000,0.000000,0.000000,0.000000,0.000000,0.000000,0.000000,0.000000,0.000000,0.000000,0.000000,0.000000,0.000000,0.000000,0.000000,0.000000,0.000000,0.000000,9.811641,0.000000,0.000000,0.000000,0.000000,0.000000,0.000000,0.000000,0.000000,0.000000,0.000000,0.000000,0.000000,0.000000,0.000000,0.000000,0.000000,0.000000,0.000000,0.000000,0.000000,0.000000,0.000000,0.000000,0.000000,0.000000,0.000000,0.000000,0.000000,0.000000,0.000000,0.000000,0.000000,0.000000,0,0,0,0,0,0.000000,0,0,0,1,0,0,0.000000,0.000000,0.000000,0.000000,0.000000,0.000000,0,1.000509,0.000000,0.000000,0.000000,0.000000,0.000000,0.000000,-1.594545,1.030935,1.594545,-1.030935,0.000000,0,0
11969,-0.021201,-0.008700,-0.014201,0.999637,0.000000,0.000000,0.000000,0.019000,0.030000,-0.998000,3,11,1,11,37.5418101,127.0794999,34.914,0.855000,2.058000,-0.018000,0.019000,-0.038000,0.164000,1000,1000,1000,1000,1000.000000,0,0,0,0,1,0,0,0,0,412,0.000000,0,0.000000,0.000000,0.000000,0.000000,0.000000,0.000000,0.000000,0.000000,0.000000,0.000000,0.000000,0.000000,0.000000,0.000000,0.000000,0.000000,0.000000,0.000000,0.000000,0.000000,0.000000,0.000000,0.000000,0.000000,0.000000,0.000000,0.000000,0.000000,0.000000,0.000000,0.000000,9.793231,0.000000,0.000000,0.000000,0.000000,0.000000,0.000000,0.000000,0.000000,0.000000,0.000000,0.000000,0.000000,0.000000,0.000000,0.000000,0.000000,0.000000,0.000000,0.000000,0.000000,0.000000,0.000000,0.000000,0.000000,0.000000,0.000000,0.000000,0.000000,0.000000,0.000000,0.000000,0.000000,0.000000,0,0,0,0,0,0.000000,0,0,0,1,0,0,0.000000,0.000000,0.000000,0.000000,0.000000,0.000000,0,0.998632,0.000000,0.000000,0.000000,0.000000,0.000000,0.000000,-1.606002,1.031176,1.606002,-1.031176,-0.010009,0,0
12013,-0.021201,-0.008700,-0.014201,0.999637,0.000000,0.000000,0.000000,0.019000,0.026000,-1.001000,3,11,1,11,37.5418101,127.0794999,34.914,0.855000,2.058000,-0.018000,0.019000,-0.038000,0.164000,1000,1000,1000,1000,1000.000000,0,0,0,0,1,0,0,0,0,456,0.000000,0,0.000000,0.000000,0.000000,0.000000,0.000000,0.000000,0.000000,0.000000,0.000000,0.000000,0.000000,0.000000,0.000000,0.000000,0.000000,0.000000,0.000000,0.000000,0.000000,0.000000,0.000000,0.000000,0.000000,0.000000,0.000000,0.000000,0.000000,0.000000,0.000000,0.000000,0.000000,9.821536,0.000000,0.000000,0.000000,0.000000,0.000000,0.000000,0.000000,0.000000,0.000000,0.000000,0.000000,0.000000,0.000000,0.000000,0.000000,0.000000,0.000000,0.000000,0.000000,0.000000,0.000000,0.000000,0.000000,0.000000,0.000000,0.000000,0.000000,0.000000,0.000000,0.000000,0.000000,0.000000,0.000000,0,0,0,0,0,0.000000,0,0,0,1,0,0,0.000000,0.000000,0.000000,0.000000,0.000000,0.000000,0,1.001518,0.000000,0.000000,0.000000,0.000000,0.000000,0.000000,-1.606002,1.031176,1.606002,-1.031176,0.000000,0,0
12060,-0.021201,-0.008700,-0.014101,0.999638,0.000000,0.000000,0.000000,0.018000,0.027000,-1.003000,3,11,1,11,37.5418101,127.0794999,34.914,0.855000,2.058000,-0.018000,0.019000,-0.038000,0.164000,1000,1000,1000,1000,1000.000000,0,0,0,0,1,0,0,0,0,502,0.000000,0,0.000000,0.000000,0.000000,0.000000,0.000000,0.000000,0.000000,0.000000,0.000000,0.000000,0.000000,0.000000,0.000000,0.000000,0.000000,0.000000,0.000000,0.000000,0.000000,0.000000,0.000000,0.000000,0.000000,0.000000,0.000000,0.000000,0.000000,0.000000,0.000000,0.000000,0.000000,9.841216,0.000000,0.000000,0.000000,0.000000,0.000000,0.000000,0.000000,0.000000,0.000000,0.000000,0.000000,0.000000,0.000000,0.000000,0.000000,0.000000,0.000000,0.000000,0.000000,0.000000,0.000000,0.000000,0.000000,0.000000,0.000000,0.000000,0.000000,0.000000,0.000000,0.000000,0.000000,0.000000,0.000000,0,0,0,0,0,0.000000,0,0,0,1,0,0,0.000000,0.000000,0.000000,0.000000,0.000000,0.000000,0,1.003525,0.000000,0.000000,0.000000,0.000000,0.000000,0.000000,-1.594545,1.030935,1.594545,-1.030935,0.005111,0,0
12090,-0.021201,-0.008700,-0.014101,0.999638,0.000000,0.000000,0.000000,0.018000,0.028000,-1.001000,3,11,1,11,37.5418100,127.0794999,34.928,0.848000,2.042000,-0.013000,-0.035000,-0.034000,0.141000,1000,1000,1000,1000,1000.000000,0,0,0,0,1,0,0,0,0,533,0.000000,0,0.000000,0.000000,0.000000,0.000000,0.000000,0.000000,0.000000,0.000000,0.000000,0.000000,0.000000,0.000000,0.000000,0.000000,0.000000,0.000000,0.000000,0.000000,0.000000,0.000000,0.000000,0.000000,0.000000,0.000000,0.000000,0.000000,0.000000,0.000000,0.000000,0.000000,0.000000,9.821883,0.000000,0.000000,0.000000,0.000000,0.000000,0.000000,0.000000,0.000000,0.000000,0.000000,0.000000,0.000000,0.000000,0.000000,0.000000,0.000000,0.000000,0.000000,0.000000,0.000000,0.000000,0.000000,0.000000,0.000000,0.000000,0.000000,0.000000,0.000000,0.000000,0.000000,0.000000,0.000000,0.000000,0,0,0,0,0,0.000000,0,0,0,1,0,0,0.000000,0.000000,0.000000,0.000000,0.000000,0.000000,0,1.001553,0.000000,0.000000,0.000000,0.000000,0.000000,0.000000,-1.594545,1.030935,1.594545,-1.030935,0.000000,0,0
12134,-0.021201,-0.008700,-0.014101,0.999638,0.000000,0.000000,0.000000,0.017000,0.026000,-1.002000,3,11,1,11,37.5418100,127.0794999,34.928,0.848000,2.042000,-0.013000,-0.035000,-0.034000,0.141000,1000,1000,1000,1000,1000.000000,0,0,0,0,1,0,0,0,0,577,0.000000,0,0.000000,0.000000,0.000000,0.000000,0.000000,0.000000,0.000000,0.000000,0.000000,0.000000,0.000000,0.000000,0.000000,0.000000,0.000000,0.000000,0.000000,0.000000,0.000000,0.000000,0.000000,0.000000,0.000000,0.000000,0.000000,0.000000,0.000000,0.000000,0.000000,0.000000,0.000000,9.830985,0.000000,0.000000,0.000000,0.000000,0.000000,0.000000,0.000000,0.000000,0.000000,0.000000,0.000000,0.000000,0.000000,0.000000,0.000000,0.000000,0.000000,0.000000,0.000000,0.000000,0.000000,0.000000,0.000000,0.000000,0.000000,0.000000,0.000000,0.000000,0.000000,0.000000,0.000000,0.000000,0.000000,0,0,0,0,0,0.000000,0,0,0,1,0,0,0.000000,0.000000,0.000000,0.000000,0.000000,0.000000,0,1.002481,0.000000,0.000000,0.000000,0.000000,0.000000,0.000000,-1.594545,1.030935,1.594545,-1.030935,0.000000,0,0
12160,-0.021201,-0.008700,-0.014101,0.999638,0.000000,0.000000,0.000000,0.019000,0.027000,-0.999000,3,11,1,11,37.5418100,127.0794999,34.928,0.848000,2.042000,-0.013000,-0.035000,-0.034000,0.141000,1000,1000,1000,1000,1000.000000,0,0,0,0,1,0,0,0,0,602,0.000000,0,0.000000,0.000000,0.000000,0.000000,0.000000,0.000000,0.000000,0.000000,0.000000,0.000000,0.000000,0.000000,0.000000,0.000000,0.000000,0.000000,0.000000,0.000000,0.000000,0.000000,0.000000,0.000000,0.000000,0.000000,0.000000,0.000000,0.000000,0.000000,0.000000,0.000000,0.000000,9.802192,0.000000,0.000000,0.000000,0.000000,0.000000,0.000000,0.000000,0.000000,0.000000,0.000000,0.000000,0.000000,0.000000,0.000000,0.000000,0.000000,0.000000,0.000000,0.000000,0.000000,0.000000,0.000000,0.000000,0.000000,0.000000,0.000000,0.000000,0.000000,0.000000,0.000000,0.000000,0.000000,0.000000,0,0,0,0,0,0.000000,0,0,0,1,0,0,0.000000,0.000000,0.000000,0.000000,0.000000,0.000000,0,0.999545,0.000000,0.000000,0.000000,0.000000,0.000000,0.000000,-1.594545,1.030935,1.594545,-1.030935,0.000000,0,0
12225,-0.021201,-0.008700,-0.014101,0.999638,0.000000,0.000000,0.000000,0.017000,0.026000,-1.000000,3,11,1,11,37.5418098,127.0794999,34.967,0.842000,2.026000,0.000000,0.037000,-0.053000,0.155000,1000,1000,1000,1000,1000.000000,0,0,0,0,1,0,0,0,0,668,0.000000,0,0.000000,0.000000,0.000000,0.000000,0.000000,0.000000,0.000000,0.000000,0.000000,0.000000,0.000000,0.000000,0.000000,0.000000,0.000000,0.000000,0.000000,0.000000,0.000000,0.000000,0.000000,0.000000,0.000000,0.000000,0.000000,0.000000,0.000000,0.000000,0.000000,0.000000,0.000000,9.811381,0.000000,0.000000,0.000000,0.000000,0.000000,0.000000,0.000000,0.000000,0.000000,0.000000,0.000000,0.000000,0.000000,0.000000,0.000000,0.000000,0.000000,0.000000,0.000000,0.000000,0.000000,0.000000,0.000000,0.000000,0.000000,0.000000,0.000000,0.000000,0.000000,0.000000,0.000000,0.000000,0.000000,0,0,0,0,0,0.000000,0,0,0,1,0,0,0.000000,0.000000,0.000000,0.000000,0.000000,0.000000,0,1.000482,0.000000,0.000000,0.000000,0.000000,0.000000,0.000000,-1.594545,1.030935,1.594545,-1.030935,0.000000,0,0
12249,-0.021201,-0.008700,-0.014101,0.999638,0.000000,0.000000,0.000000,0.017000,0.028000,-1.000000,3,11,1,11,37.5418098,127.0794999,34.967,0.842000,2.026000,0.000000,0.037000,-0.053000,0.155000,1000,1000,1000,1000,1000.000000,0,0,0,0,1,0,0,0,0,692,0.000000,0,0.000000,0.000000,0.000000,0.000000,0.000000,0.000000,0.000000,0.000000,0.000000,0.000000,0.000000,0.000000,0.000000,0.000000,0.000000,0.000000,0.000000,0.000000,0.000000,0.000000,0.000000,0.000000,0.000000,0.000000,0.000000,0.000000,0.000000,0.000000,0.000000,0.000000,0.000000,9.811910,0.000000,0.000000,0.000000,0.000000,0.000000,0.000000,0.000000,0.000000,0.000000,0.000000,0.000000,0.000000,0.000000,0.000000,0.000000,0.000000,0.000000,0.000000,0.000000,0.000000,0.000000,0.000000,0.000000,0.000000,0.000000,0.000000,0.000000,0.000000,0.000000,0.000000,0.000000,0.000000,0.000000,0,0,0,0,0,0.000000,0,0,0,1,0,0,0.000000,0.000000,0.000000,0.000000,0.000000,0.000000,0,1.000536,0.000000,0.000000,0.000000,0.000000,0.000000,0.000000,-1.594545,1.030935,1.594545,-1.030935,0.000000,0,0
12293,-0.021201,-0.008700,-0.014101,0.999638,0.000000,0.000000,0.000000,0.018000,0.027000,-1.000000,3,11,1,11,37.5418098,127.0794999,34.967,0.842000,2.026000,0.000000,0.037000,-0.053000,0.155000,1000,1000,1000,1000,1000.000000,0,0,0,0,1,0,0,0,0,736,0.000000,0,0.000000,0.000000,0.000000,0.000000,0.000000,0.000000,0.000000,0.000000,0.000000,0.000000,0.000000,0.000000,0.000000,0.000000,0.000000,0.000000,0.000000,0.000000,0.000000,0.000000,0.000000,0.000000,0.000000,0.000000,0.000000,0.000000,0.000000,0.000000,0.000000,0.000000,0.000000,9.811811,0.000000,0.000000,0.000000,0.000000,0.000000,0.000000,0.000000,0.000000,0.000000,0.000000,0.000000,0.000000,0.000000,0.000000,0.000000,0.000000,0.000000,0.000000,0.000000,0.000000,0.000000,0.000000,0.000000,0.000000,0.000000,0.000000,0.000000,0.000000,0.000000,0.000000,0.000000,0.000000,0.000000,0,0,0,0,0,0.000000,0,0,0,1,0,0,0.000000,0.000000,0.000000,0.000000,0.000000,0.000000,0,1.000526,0.000000,0.000000,0.000000,0.000000,0.000000,0.000000,-1.594545,1.030935,1.594545,-1.030935,0.000000,0,0
12337,-0.021201,-0.008700,-0.014101,0.999638,0.000000,0.000000,0.000000,0.019000,0.026000,-1.000000,3,11,1,11,37.5418098,127.0794999,34.977,0.836000,2.010000,-0.021000,0.011000,-0.039000,0.165000,1000,1000,1000,1000,1000.000000,0,0,0,0,1,0,0,0,0,780,0.000000,0,0.000000,0.000000,0.000000,0.000000,0.000000,0.000000,0.000000,0.000000,0.000000,0.000000,0.000000,0.000000,0.000000,0.000000,0.000000,0.000000,0.000000,0.000000,0.000000,0.000000,0.000000,0.000000,0.000000,0.000000,0.000000,0.000000,0.000000,0.000000,0.000000,0.000000,0.000000,9.811733,0.000000,0.000000,0.000000,0.000000,0.000000,0.000000,0.000000,0.000000,0.000000,0.000000,0.000000,0.000000,0.000000,0.000000,0.000000,0.000000,0.000000,0.000000,0.000000,0.000000,0.000000,0.000000,0.000000,0.000000,0.000000,0.000000,0.000000,0.000000,0.000000,0.000000,0.000000,0.000000,0.000000,0,0,0,0,0,0.000000,0,0,0,1,0,0,0.000000,0.000000,0.000000,0.000000,0.000000,0.000000,0,1.000518,0.000000,0.000000,0.000000,0.000000,0.000000,0.000000,-1.594545,1.030935,1.594545,-1.030935,0.000000,0,0
12367,-0.021201,-0.008700,-0.014101,0.999638,0.000000,0.000000,0.000000,0.018000,0.027000,-1.002000,3,11,1,11,37.5418098,127.0794999,34.977,0.836000,2.010000,-0.021000,0.011000,-0.039000,0.165000,1000,1000,1000,1000,1000.000000,0,0,0,0,1,0,0,0,0,810,0.000000,0,0.000000,0.000000,0.000000,0.000000,0.000000,0.000000,0.000000,0.000000,0.000000,0.000000,0.000000,0.000000,0.000000,0.000000,0.000000,0.000000,0.000000,0.000000,0.000000,0.000000,0.000000,0.000000,0.000000,0.000000,0.000000,0.000000,0.000000,0.000000,0.000000,0.000000,0.000000,9.831415,0.000000,0.000000,0.000000,0.000000,0.000000,0.000000,0.000000,0.000000,0.000000,0.000000,0.000000,0.000000,0.000000,0.000000,0.000000,0.000000,0.000000,0.000000,0.000000,0.000000,0.000000,0.000000,0.000000,0.000000,0.000000,0.000000,0.000000,0.000000,0.000000,0.000000,0.000000,0.000000,0.000000,0,0,0,0,0,0.000000,0,0,0,1,0,0,0.000000,0.000000,0.000000,0.000000,0.000000,0.000000,0,1.002525,0.000000,0.000000,0.000000,0.000000,0.000000,0.000000,-1.594545,1.030935,1.594545,-1.030935,0.000000,0,0
12412,-0.021201,-0.008700,-0.014101,0.999638,0.000000,0.000000,0.000000,0.017000,0.029000,-1.001000,3,11,1,11,37.5418098,127.0794999,34.977,0.836000,2.010000,-0.021000,0.011000,-0.039000,0.165000,1000,1000,1000,1000,1000.000000,0,0,0,0,1,0,0,0,0,855,0.000000,0,0.000000,0.000000,0.000000,0.000000,0.000000,0.000000,0.000000,0.000000,0.000000,0.000000,0.000000,0.000000,0.000000,0.000000,0.000000,0.000000,0.000000,0.000000,0.000000,0.000000,0.000000,0.000000,0.000000,0.000000,0.000000,0.000000,0.000000,0.000000,0.000000,0.000000,0.000000,9.821990,0.000000,0.000000,0.000000,0.000000,0.000000,0.000000,0.000000,0.000000,0.000000,0.000000,0.000000,0.000000,0.000000,0.000000,0.000000,0.000000,0.000000,0.000000,0.000000,0.000000,0.000000,0.000000,0.000000,0.000000,0.000000,0.000000,0.000000,0.000000,0.000000,0.000000,0.000000,0.000000,0.000000,0,0,0,0,0,0.000000,0,0,0,1,0,0,0.000000,0.000000,0.000000,0.000000,0.000000,0.000000,0,1.001564,0.000000,0.000000,0.000000,0.000000,0.000000,0.000000,-1.594545,1.030935,1.594545,-1.030935,0.000000,0,0
12460,-0.021201,-0.008700,-0.014101,0.999638,0.000000,0.000000,0.000000,0.018000,0.026000,-1.001000,3,11,1,11,37.5418097,127.0794999,34.983,0.830000,1.995000,0.003000,-0.019000,-0.031000,0.140000,1000,1000,1000,1000,1000.000000,0,0,0,0,1,0,0,0,0,902,0.000000,0,0.000000,0.000000,0.000000,0.000000,0.000000,0.000000,0.000000,0.000000,0.000000,0.000000,0.000000,0.000000,0.000000,0.000000,0.000000,0.000000,0.000000,0.000000,0.000000,0.000000,0.000000,0.000000,0.000000,0.000000,0.000000,0.000000,0.000000,0.000000,0.000000,0.000000,0.000000,9.821355,0.000000,0.000000,0.000000,0.000000,0.000000,0.000000,0.000000,0.000000,0.000000,0.000000,0.000000,0.000000,0.000000,0.000000,0.000000,0.000000,0.000000,0.000000,0.000000,0.000000,0.000000,0.000000,0.000000,0.000000,0.000000,0.000000,0.000000,0.000000,0.000000,0.000000,0.000000,0.000000,0.000000,0,0,0,0,0,0.000000,0,0,0,1,0,0,0.000000,0.000000,0.000000,0.000000,0.000000,0.000000,0,1.001499,0.000000,0.000000,0.000000,0.000000,0.000000,0.000000,-1.594545,1.030935,1.594545,-1.030935,0.000000,0,0
12533,-0.021201,-0.008700,-0.014101,0.999638,0.000000,0.000000,0.000000,0.018000,0.026000,-1.002000,3,11,1,11,37.5418097,127.0794999,34.983,0.830000,1.995000,0.003000,-0.019000,-0.031000,0.140000,1000,1000,1000,1000,1000.000000,0,0,0,0,1,0,0,0,0,976,0.000000,0,0.000000,0.000000,0.000000,0.000000,0.000000,0.000000,0.000000,0.000000,0.000000,0.000000,0.000000,0.000000,0.000000,0.000000,0.000000,0.000000,0.000000,0.000000,0.000000,0.000000,0.000000,0.000000,0.000000,0.000000,0.000000,0.000000,0.000000,0.000000,0.000000,0.000000,0.000000,9.831156,0.000000,0.000000,0.000000,0.000000,0.000000,0.000000,0.000000,0.000000,0.000000,0.000000,0.000000,0.000000,0.000000,0.000000,0.000000,0.000000,0.000000,0.000000,0.000000,0.000000,0.000000,0.000000,0.000000,0.000000,0.000000,0.000000,0.000000,0.000000,0.000000,0.000000,0.000000,0.000000,0.000000,0,0,0,0,0,0.000000,0,0,0,1,0,0,0.000000,0.000000,0.000000,0.000000,0.000000,0.000000,0,1.002499,0.000000,0.000000,0.000000,0.000000,0.000000,0.000000,-1.594545,1.030935,1.594545,-1.030935,0.000000,0,0
12583,-0.021201,-0.008700,-0.014101,0.999638,0.000000,0.000000,0.000000,0.016000,0.028000,-0.997000,3,11,1,11,37.5418096,127.0794999,34.997,0.825000,1.980000,-0.001000,0.015000,-0.021000,0.155000,1000,1000,1000,1000,1000.000000,0,0,0,0,1,0,0,0,0,1026,0.000000,0,0.000000,0.000000,0.000000,0.000000,0.000000,0.000000,0.000000,0.000000,0.000000,0.000000,0.000000,0.000000,0.000000,0.000000,0.000000,0.000000,0.000000,0.000000,0.000000,0.000000,0.000000,0.000000,0.000000,0.000000,0.000000,0.000000,0.000000,0.000000,0.000000,0.000000,0.000000,9.782344,0.000000,0.000000,0.000000,0.000000,0.000000,0.000000,0.000000,0.000000,0.000000,0.000000,0.000000,0.000000,0.000000,0.000000,0.000000,0.000000,0.000000,0.000000,0.000000,0.000000,0.000000,0.000000,0.000000,0.000000,0.000000,0.000000,0.000000,0.000000,0.000000,0.000000,0.000000,0.000000,0.000000,0,0,0,0,0,0.000000,0,0,0,1,0,0,0.000000,0.000000,0.000000,0.000000,0.000000,0.000000,0,0.997521,0.000000,0.000000,0.000000,0.000000,0.000000,0.000000,-1.594545,1.030935,1.594545,-1.030935,0.000000,0,0
12635,-0.021201,-0.008700,-0.014101,0.999638,0.000000,0.000000,0.000000,0.019000,0.027000,-0.997000,3,11,1,11,37.5418096,127.0794999,34.997,0.825000,1.980000,-0.001000,0.015000,-0.021000,0.155000,1000,1000,1000,1000,1000.000000,0,0,0,0,1,0,0,0,0,1078,0.000000,0,0.000000,0.000000,0.000000,0.000000,0.000000,0.000000,0.000000,0.000000,0.000000,0.000000,0.000000,0.000000,0.000000,0.000000,0.000000,0.000000,0.000000,0.000000,0.000000,0.000000,0.000000,0.000000,0.000000,0.000000,0.000000,0.000000,0.000000,0.000000,0.000000,0.000000,0.000000,9.782590,0.000000,0.000000,0.000000,0.000000,0.000000,0.000000,0.000000,0.000000,0.000000,0.000000,0.000000,0.000000,0.000000,0.000000,0.000000,0.000000,0.000000,0.000000,0.000000,0.000000,0.000000,0.000000,0.000000,0.000000,0.000000,0.000000,0.000000,0.000000,0.000000,0.000000,0.000000,0.000000,0.000000,0,0,0,0,0,0.000000,0,0,0,1,0,0,0.000000,0.000000,0.000000,0.000000,0.000000,0.000000,0,0.997546,0.000000,0.000000,0.000000,0.000000,0.000000,0.000000,-1.594545,1.030935,1.594545,-1.030935,0.000000,0,0
12660,-0.021201,-0.008700,-0.014101,0.999638,0.000000,0.000000,0.000000,0.018000,0.029000,-0.994000,3,11,1,11,37.5418096,127.0794999,34.997,0.825000,1.980000,-0.001000,0.015000,-0.021000,0.155000,1000,1000,1000,1000,1000.000000,0,0,0,0,1,0,0,0,0,1102,0.000000,0,0.000000,0.000000,0.000000,0.000000,0.000000,0.000000,0.000000,0.000000,0.000000,0.000000,0.000000,0.000000,0.000000,0.000000,0.000000,0.000000,0.000000,0.000000,0.000000,0.000000,0.000000,0.000000,0.000000,0.000000,0.000000,0.000000,0.000000,0.000000,0.000000,0.000000,0.000000,9.753555,0.000000,0.000000,0.000000,0.000000,0.000000,0.000000,0.000000,0.000000,0.000000,0.000000,0.000000,0.000000,0.000000,0.000000,0.000000,0.000000,0.000000,0.000000,0.000000,0.000000,0.000000,0.000000,0.000000,0.000000,0.000000,0.000000,0.000000,0.000000,0.000000,0.000000,0.000000,0.000000,0.000000,0,0,0,0,0,0.000000,0,0,0,1,0,0,0.000000,0.000000,0.000000,0.000000,0.000000,0.000000,0,0.994586,0.000000,0.000000,0.000000,0.000000,0.000000,0.000000,-1.594545,1.030935,1.594545,-1.030935,0.000000,0,0
12710,-0.021201,-0.008700,-0.014101,0.999638,0.000000,0.000000,0.000000,0.017000,0.028000,-1.013000,3,11,1,11,37.5418096,127.0795000,35.015,0.819000,1.966000,0.010000,0.028000,-0.026000,0.139000,1000,1000,1000,1000,1000.000000,0,0,0,0,1,0,0,0,0,1153,0.000000,0,0.000000,0.000000,0.000000,0.000000,0.000000,0.000000,0.000000,0.000000,0.000000,0.000000,0.000000,0.000000,0.000000,0.000000,0.000000,0.000000,0.000000,0.000000,0.000000,0.000000,0.000000,0.000000,0.000000,0.000000,0.000000,0.000000,0.000000,0.000000,0.000000,0.000000,0.000000,9.939329,0.000000,0.000000,0.000000,0.000000,0.000000,0.000000,0.000000,0.000000,0.000000,0.000000,0.000000,0.000000,0.000000,0.000000,0.000000,0.000000,0.000000,0.000000,0.000000,0.000000,0.000000,0.000000,0.000000,0.000000,0.000000,0.000000,0.000000,0.000000,0.000000,0.000000,0.000000,0.000000,0.000000,0,0,0,0,0,0.000000,0,0,0,1,0,0,0.000000,0.000000,0.000000,0.000000,0.000000,0.000000,0,1.013530,0.000000,0.000000,0.000000,0.000000,0.000000,0.000000,-1.594545,1.030935,1.594545,-1.030935,0.000000,0,0
12734,-0.021201,-0.008700,-0.014101,0.999638,0.000000,0.000000,0.000000,0.017000,0.030000,-1.010000,3,11,1,11,37.5418096,127.0795000,35.015,0.819000,1.966000,0.010000,0.028000,-0.026000,0.139000,1000,1000,1000,1000,1000.000000,0,0,0,0,1,0,0,0,0,1177,0.000000,0,0.000000,0.000000,0.000000,0.000000,0.000000,0.000000,0.000000,0.000000,0.000000,0.000000,0.000000,0.000000,0.000000,0.000000,0.000000,0.000000,0.000000,0.000000,0.000000,0.000000,0.000000,0.000000,0.000000,0.000000,0.000000,0.000000,0.000000,0.000000,0.000000,0.000000,0.000000,9.910487,0.000000,0.000000,0.000000,0.000000,0.000000,0.000000,0.000000,0.000000,0.000000,0.000000,0.000000,0.000000,0.000000,0.000000,0.000000,0.000000,0.000000,0.000000,0.000000,0.000000,0.000000,0.000000,0.000000,0.000000,0.000000,0.000000,0.000000,0.000000,0.000000,0.000000,0.000000,0.000000,0.000000,0,0,0,0,0,0.000000,0,0,0,1,0,0,0.000000,0.000000,0.000000,0.000000,0.000000,0.000000,0,1.010588,0.000000,0.000000,0.000000,0.000000,0.000000,0.000000,-1.594545,1.030935,1.594545,-1.030935,0.000000,0,0
12779,-0.021201,-0.008700,-0.014101,0.999638,0.000000,0.000000,0.000000,0.016000,0.026000,-0.998000,3,11,1,11,37.5418096,127.0795000,35.015,0.819000,1.966000,0.010000,0.028000,-0.026000,0.139000,1000,1000,1000,1000,1000.000000,0,0,0,0,1,0,0,0,0,1222,0.000000,0,0.000000,0.000000,0.000000,0.000000,0.000000,0.000000,0.000000,0.000000,0.000000,0.000000,0.000000,0.000000,0.000000,0.000000,0.000000,0.000000,0.000000,0.000000,0.000000,0.000000,0.000000,0.000000,0.000000,0.000000,0.000000,0.000000,0.000000,0.000000,0.000000,0.000000,0.000000,9.791615,0.000000,0.000000,0.000000,0.000000,0.000000,0.000000,0.000000,0.000000,0.000000,0.000000,0.000000,0.000000,0.000000,0.000000,0.000000,0.000000,0.000000,0.000000,0.000000,0.000000,0.000000,0.000000,0.000000,0.000000,0.000000,0.000000,0.000000,0.000000,0.000000,0.000000,0.000000,0.000000,0.000000,0,0,0,0,0,0.000000,0,0,0,1,0,0,0.000000,0.000000,0.000000,0.000000,0.000000,0.000000,0,0.998467,0.000000,0.000000,0.000000,0.000000,0.000000,0.000000,-1.594545,1.030935,1.594545,-1.030935,0.000000,0,0
12823,-0.021201,-0.008700,-0.014101,0.999638,0.000000,0.000000,0.000000,0.016000,0.027000,-1.001000,3,11,1,11,37.5418095,127.0794999,35.012,0.814000,1.952000,-0.016000,-0.020000,-0.023000,0.143000,1000,1000,1000,1000,1000.000000,0,0,0,0,1,0,0,0,0,1266,0.000000,0,0.000000,0.000000,0.000000,0.000000,0.000000,0.000000,0.000000,0.000000,0.000000,0.000000,0.000000,0.000000,0.000000,0.000000,0.000000,0.000000,0.000000,0.000000,0.000000,0.000000,0.000000,0.000000,0.000000,0.000000,0.000000,0.000000,0.000000,0.000000,0.000000,0.000000,0.000000,9.821280,0.000000,0.000000,0.000000,0.000000,0.000000,0.000000,0.000000,0.000000,0.000000,0.000000,0.000000,0.000000,0.000000,0.000000,0.000000,0.000000,0.000000,0.000000,0.000000,0.000000,0.000000,0.000000,0.000000,0.000000,0.000000,0.000000,0.000000,0.000000,0.000000,0.000000,0.000000,0.000000,0.000000,0,0,0,0,0,0.000000,0,0,0,1,0,0,0.000000,0.000000,0.000000,0.000000,0.000000,0.000000,0,1.001492,0.000000,0.000000,0.000000,0.000000,0.000000,0.000000,-1.594545,1.030935,1.594545,-1.030935,0.000000,0,0
12867,-0.021201,-0.008700,-0.014101,0.999638,0.000000,0.000000,0.000000,0.017000,0.026000,-0.999000,3,11,1,11,37.5418095,127.0794999,35.012,0.814000,1.952000,-0.016000,-0.020000,-0.023000,0.143000,1000,1000,1000,1000,1000.000000,0,0,0,0,1,0,0,0,0,1310,0.000000,0,0.000000,0.000000,0.000000,0.000000,0.000000,0.000000,0.000000,0.000000,0.000000,0.000000,0.000000,0.000000,0.000000,0.000000,0.000000,0.000000,0.000000,0.000000,0.000000,0.000000,0.000000,0.000000,0.000000,0.000000,0.000000,0.000000,0.000000,0.000000,0.000000,0.000000,0.000000,9.801579,0.000000,0.000000,0.000000,0.000000,0.000000,0.000000,0.000000,0.000000,0.000000,0.000000,0.000000,0.000000,0.000000,0.000000,0.000000,0.000000,0.000000,0.000000,0.000000,0.000000,0.000000,0.000000,0.000000,0.000000,0.000000,0.000000,0.000000,0.000000,0.000000,0.000000,0.000000,0.000000,0.000000,0,0,0,0,0,0.000000,0,0,0,1,0,0,0.000000,0.000000,0.000000,0.000000,0.000000,0.000000,0,0.999483,0.000000,0.000000,0.000000,0.000000,0.000000,0.000000,-1.594545,1.030935,1.594545,-1.030935,0.000000,0,0
12911,-0.021201,-0.008700,-0.014101,0.999638,0.000000,0.000000,0.000000,0.017000,0.027000,-1.001000,3,11,1,11,37.5418095,127.0794999,35.012,0.814000,1.952000,-0.016000,-0.020000,-0.023000,0.143000,1000,1000,1000,1000,1000.000000,0,0,0,0,1,0,0,0,0,1354,0.000000,0,0.000000,0.000000,0.000000,0.000000,0.000000,0.000000,0.000000,0.000000,0.000000,0.000000,0.000000,0.000000,0.000000,0.000000,0.000000,0.000000,0.000000,0.000000,0.000000,0.000000,0.000000,0.000000,0.000000,0.000000,0.000000,0.000000,0.000000,0.000000,0.000000,0.000000,0.000000,9.821442,0.000000,0.000000,0.000000,0.000000,0.000000,0.000000,0.000000,0.000000,0.000000,0.000000,0.000000,0.000000,0.000000,0.000000,0.000000,0.000000,0.000000,0.000000,0.000000,0.000000,0.000000,0.000000,0.000000,0.000000,0.000000,0.000000,0.000000,0.000000,0.000000,0.000000,0.000000,0.000000,0.000000,0,0,0,0,0,0.000000,0,0,0,1,0,0,0.000000,0.000000,0.000000,0.000000,0.000000,0.000000,0,1.001508,0.000000,0.000000,0.000000,0.000000,0.000000,0.000000,-1.594545,1.030935,1.594545,-1.030935,0.000000,0,0
12972,-0.021201,-0.008700,-0.014101,0.999638,0.000000,0.000000,0.000000,0.018000,0.026000,-1.002000,3,11,1,11,37.5418095,127.0795000,35.013,0.809000,1.939000,0.005000,0.030000,-0.021000,0.136000,1000,1000,1000,1000,1000.000000,0,0,0,0,1,0,0,0,0,1415,0.000000,0,0.000000,0.000000,0.000000,0.000000,0.000000,0.000000,0.000000,0.000000,0.000000,0.000000,0.000000,0.000000,0.000000,0.000000,0.000000,0.000000,0.000000,0.000000,0.000000,0.000000,0.000000,0.000000,0.000000,0.000000,0.000000,0.000000,0.000000,0.000000,0.000000,0.000000,0.000000,9.831156,0.000000,0.000000,0.000000,0.000000,0.000000,0.000000,0.000000,0.000000,0.000000,0.000000,0.000000,0.000000,0.000000,0.000000,0.000000,0.000000,0.000000,0.000000,0.000000,0.000000,0.000000,0.000000,0.000000,0.000000,0.000000,0.000000,0.000000,0.000000,0.000000,0.000000,0.000000,0.000000,0.000000,0,0,0,0,0,0.000000,0,0,0,1,0,0,0.000000,0.000000,0.000000,0.000000,0.000000,0.000000,0,1.002499,0.000000,0.000000,0.000000,0.000000,0.000000,0.000000,-1.594545,1.030935,1.594545,-1.030935,0.000000,0,0
12996,-0.021201,-0.008700,-0.014101,0.999638,0.000000,0.000000,0.000000,0.016000,0.028000,-1.001000,3,11,1,11,37.5418095,127.0795000,35.013,0.809000,1.939000,0.005000,0.030000,-0.021000,0.136000,1000,1000,1000,1000,1000.000000,0,0,0,0,1,0,0,0,0,1439,0.000000,0,0.000000,0.000000,0.000000,0.000000,0.000000,0.000000,0.000000,0.000000,0.000000,0.000000,0.000000,0.000000,0.000000,0.000000,0.000000,0.000000,0.000000,0.000000,0.000000,0.000000,0.000000,0.000000,0.000000,0.000000,0.000000,0.000000,0.000000,0.000000,0.000000,0.000000,0.000000,9.821549,0.000000,0.000000,0.000000,0.000000,0.000000,0.000000,0.000000,0.000000,0.000000,0.000000,0.000000,0.000000,0.000000,0.000000,0.000000,0.000000,0.000000,0.000000,0.000000,0.000000,0.000000,0.000000,0.000000,0.000000,0.000000,0.000000,0.000000,0.000000,0.000000,0.000000,0.000000,0.000000,0.000000,0,0,0,0,0,0.000000,0,0,0,1,0,0,0.000000,0.000000,0.000000,0.000000,0.000000,0.000000,0,1.001519,0.000000,0.000000,0.000000,0.000000,0.000000,0.000000,-1.594545,1.030935,1.594545,-1.030935,0.000000,0,0
13020,-0.021201,-0.008700,-0.014101,0.999638,0.000000,0.000000,0.000000,0.019000,0.028000,-1.001000,3,11,1,11,37.5418095,127.0795000,35.013,0.809000,1.939000,0.005000,0.030000,-0.021000,0.136000,1000,1000,1000,1000,1000.000000,0,0,0,0,1,0,0,0,0,1463,0.000000,0,0.000000,0.000000,0.000000,0.000000,0.000000,0.000000,0.000000,0.000000,0.000000,0.000000,0.000000,0.000000,0.000000,0.000000,0.000000,0.000000,0.000000,0.000000,0.000000,0.000000,0.000000,0.000000,0.000000,0.000000,0.000000,0.000000,0.000000,0.000000,0.000000,0.000000,0.000000,9.822064,0.000000,0.000000,0.000000,0.000000,0.000000,0.000000,0.000000,0.000000,0.000000,0.000000,0.000000,0.000000,0.000000,0.000000,0.000000,0.000000,0.000000,0.000000,0.000000,0.000000,0.000000,0.000000,0.000000,0.000000,0.000000,0.000000,0.000000,0.000000,0.000000,0.000000,0.000000,0.000000,0.000000,0,0,0,0,0,0.000000,0,0,0,1,0,0,0.000000,0.000000,0.000000,0.000000,0.000000,0.000000,0,1.001572,0.000000,0.000000,0.000000,0.000000,0.000000,0.000000,-1.594545,1.030935,1.594545,-1.030935,0.000000,0,0
13065,-0.021201,-0.008700,-0.014101,0.999638,0.000000,0.000000,0.000000,0.019000,0.027000,-1.001000,3,11,1,11,37.5418095,127.0795000,35.003,0.803000,1.926000,-0.020000,-0.008000,-0.028000,0.156000,1000,1000,1000,1000,1000.000000,0,0,0,0,1,0,0,0,0,1507,0.000000,0,0.000000,0.000000,0.000000,0.000000,0.000000,0.000000,0.000000,0.000000,0.000000,0.000000,0.000000,0.000000,0.000000,0.000000,0.000000,0.000000,0.000000,0.000000,0.000000,0.000000,0.000000,0.000000,0.000000,0.000000,0.000000,0.000000,0.000000,0.000000,0.000000,0.000000,0.000000,9.821795,0.000000,0.000000,0.000000,0.000000,0.000000,0.000000,0.000000,0.000000,0.000000,0.000000,0.000000,0.000000,0.000000,0.000000,0.000000,0.000000,0.000000,0.000000,0.000000,0.000000,0.000000,0.000000,0.000000,0.000000,0.000000,0.000000,0.000000,0.000000,0.000000,0.000000,0.000000,0.000000,0.000000,0,0,0,0,0,0.000000,0,0,0,1,0,0,0.000000,0.000000,0.000000,0.000000,0.000000,0.000000,0,1.001544,0.000000,0.000000,0.000000,0.000000,0.000000,0.000000,-1.594545,1.030935,1.594545,-1.030935,0.000000,0,0
13110,-0.021201,-0.008700,-0.014101,0.999638,0.000000,0.000000,0.000000,0.019000,0.027000,-1.000000,3,11,1,11,37.5418095,127.0795000,35.003,0.803000,1.926000,-0.020000,-0.008000,-0.028000,0.156000,1000,1000,1000,1000,1000.000000,0,0,0,0,1,0,0,0,0,1552,0.000000,0,0.000000,0.000000,0.000000,0.000000,0.000000,0.000000,0.000000,0.000000,0.000000,0.000000,0.000000,0.000000,0.000000,0.000000,0.000000,0.000000,0.000000,0.000000,0.000000,0.000000,0.000000,0.000000,0.000000,0.000000,0.000000,0.000000,0.000000,0.000000,0.000000,0.000000,0.000000,9.811994,0.000000,0.000000,0.000000,0.000000,0.000000,0.000000,0.000000,0.000000,0.000000,0.000000,0.000000,0.000000,0.000000,0.000000,0.000000,0.000000,0.000000,0.000000,0.000000,0.000000,0.000000,0.000000,0.000000,0.000000,0.000000,0.000000,0.000000,0.000000,0.000000,0.000000,0.000000,0.000000,0.000000,0,0,0,0,0,0.000000,0,0,0,1,0,0,0.000000,0.000000,0.000000,0.000000,0.000000,0.000000,0,1.000545,0.000000,0.000000,0.000000,0.000000,0.000000,0.000000,-1.594545,1.030935,1.594545,-1.030935,0.000000,0,0
13133,-0.021201,-0.008700,-0.014101,0.999638,0.000000,0.000000,0.000000,0.017000,0.027000,-1.002000,3,11,1,11,37.5418095,127.0795000,35.003,0.803000,1.926000,-0.020000,-0.008000,-0.028000,0.156000,1000,1000,1000,1000,1000.000000,0,0,0,0,1,0,0,0,0,1576,0.000000,0,0.000000,0.000000,0.000000,0.000000,0.000000,0.000000,0.000000,0.000000,0.000000,0.000000,0.000000,0.000000,0.000000,0.000000,0.000000,0.000000,0.000000,0.000000,0.000000,0.000000,0.000000,0.000000,0.000000,0.000000,0.000000,0.000000,0.000000,0.000000,0.000000,0.000000,0.000000,9.831244,0.000000,0.000000,0.000000,0.000000,0.000000,0.000000,0.000000,0.000000,0.000000,0.000000,0.000000,0.000000,0.000000,0.000000,0.000000,0.000000,0.000000,0.000000,0.000000,0.000000,0.000000,0.000000,0.000000,0.000000,0.000000,0.000000,0.000000,0.000000,0.000000,0.000000,0.000000,0.000000,0.000000,0,0,0,0,0,0.000000,0,0,0,1,0,0,0.000000,0.000000,0.000000,0.000000,0.000000,0.000000,0,1.002508,0.000000,0.000000,0.000000,0.000000,0.000000,0.000000,-1.594545,1.030935,1.594545,-1.030935,0.000000,0,0
13181,-0.021201,-0.008700,-0.014101,0.999638,0.000000,0.000000,0.000000,0.017000,0.023000,-1.012000,3,11,1,11,37.5418095,127.0795000,35.003,0.803000,1.926000,-0.020000,-0.008000,-0.028000,0.156000,1000,1000,1000,1000,1000.000000,0,0,0,0,1,0,0,0,0,1623,0.000000,0,0.000000,0.000000,0.000000,0.000000,0.000000,0.000000,0.000000,0.000000,0.000000,0.000000,0.000000,0.000000,0.000000,0.000000,0.000000,0.000000,0.000000,0.000000,0.000000,0.000000,0.000000,0.000000,0.000000,0.000000,0.000000,0.000000,0.000000,0.000000,0.000000,0.000000,0.000000,9.928292,0.000000,0.000000,0.000000,0.000000,0.000000,0.000000,0.000000,0.000000,0.000000,0.000000,0.000000,0.000000,0.000000,0.000000,0.000000,0.000000,0.000000,0.000000,0.000000,0.000000,0.000000,0.000000,0.000000,0.000000,0.000000,0.000000,0.000000,0.000000,0.000000,0.000000,0.000000,0.000000,0.000000,0,0,0,0,0,0.000000,0,0,0,1,0,0,0.000000,0.000000,0.000000,0.000000,0.000000,0.000000,0,1.012404,0.000000,0.000000,0.000000,0.000000,0.000000,0.000000,-1.594545,1.030935,1.594545,-1.030935,0.000000,0,0
13246,-0.021201,-0.008700,-0.014201,0.999637,0.000000,0.000000,0.000000,0.018000,0.036000,-0.994000,3,11,1,11,37.5418095,127.0795000,34.998,0.798000,1.912000,-0.007000,-0.009000,-0.026000,0.156000,1000,1000,1000,1000,1000.000000,0,0,0,0,1,0,0,0,0,1689,0.000000,0,0.000000,0.000000,0.000000,0.000000,0.000000,0.000000,0.000000,0.000000,0.000000,0.000000,0.000000,0.000000,0.000000,0.000000,0.000000,0.000000,0.000000,0.000000,0.000000,0.000000,0.000000,0.000000,0.000000,0.000000,0.000000,0.000000,0.000000,0.000000,0.000000,0.000000,0.000000,9.755798,0.000000,0.000000,0.000000,0.000000,0.000000,0.000000,0.000000,0.000000,0.000000,0.000000,0.000000,0.000000,0.000000,0.000000,0.000000,0.000000,0.000000,0.000000,0.000000,0.000000,0.000000,0.000000,0.000000,0.000000,0.000000,0.000000,0.000000,0.000000,0.000000,0.000000,0.000000,0.000000,0.000000,0,0,0,0,0,0.000000,0,0,0,1,0,0,0.000000,0.000000,0.000000,0.000000,0.000000,0.000000,0,0.994815,0.000000,0.000000,0.000000,0.000000,0.000000,0.000000,-1.606002,1.031176,1.606002,-1.031176,-0.003695,0,0
13270,-0.021201,-0.008700,-0.014201,0.999637,0.000000,0.000000,0.000000,0.008000,0.037000,-0.998000,3,11,1,11,37.5418095,127.0795000,34.998,0.798000,1.912000,-0.007000,-0.009000,-0.026000,0.156000,1000,1000,1000,1000,1000.000000,0,0,0,0,1,0,0,0,0,1713,0.000000,0,0.000000,0.000000,0.000000,0.000000,0.000000,0.000000,0.000000,0.000000,0.000000,0.000000,0.000000,0.000000,0.000000,0.000000,0.000000,0.000000,0.000000,0.000000,0.000000,0.000000,0.000000,0.000000,0.000000,0.000000,0.000000,0.000000,0.000000,0.000000,0.000000,0.000000,0.000000,9.794075,0.000000,0.000000,0.000000,0.000000,0.000000,0.000000,0.000000,0.000000,0.000000,0.000000,0.000000,0.000000,0.000000,0.000000,0.000000,0.000000,0.000000,0.000000,0.000000,0.000000,0.000000,0.000000,0.000000,0.000000,0.000000,0.000000,0.000000,0.000000,0.000000,0.000000,0.000000,0.000000,0.000000,0,0,0,0,0,0.000000,0,0,0,1,0,0,0.000000,0.000000,0.000000,0.000000,0.000000,0.000000,0,0.998718,0.000000,0.000000,0.000000,0.000000,0.000000,0.000000,-1.606002,1.031176,1.606002,-1.031176,0.000000,0,0
13294,-0.021201,-0.008700,-0.014201,0.999637,0.000000,0.000000,0.000000,0.014000,0.034000,-1.001000,3,11,1,11,37.5418095,127.0795000,34.998,0.798000,1.912000,-0.007000,-0.009000,-0.026000,0.156000,1000,1000,1000,1000,1000.000000,0,0,0,0,1,0,0,0,0,1737,0.000000,0,0.000000,0.000000,0.000000,0.000000,0.000000,0.000000,0.000000,0.000000,0.000000,0.000000,0.000000,0.000000,0.000000,0.000000,0.000000,0.000000,0.000000,0.000000,0.000000,0.000000,0.000000,0.000000,0.000000,0.000000,0.000000,0.000000,0.000000,0.000000,0.000000,0.000000,0.000000,9.823077,0.000000,0.000000,0.000000,0.000000,0.000000,0.000000,0.000000,0.000000,0.000000,0.000000,0.000000,0.000000,0.000000,0.000000,0.000000,0.000000,0.000000,0.000000,0.000000,0.000000,0.000000,0.000000,0.000000,0.000000,0.000000,0.000000,0.000000,0.000000,0.000000,0.000000,0.000000,0.000000,0.000000,0,0,0,0,0,0.000000,0,0,0,1,0,0,0.000000,0.000000,0.000000,0.000000,0.000000,0.000000,0,1.001675,0.000000,0.000000,0.000000,0.000000,0.000000,0.000000,-1.606002,1.031176,1.606002,-1.031176,0.000000,0,0
13338,-0.021201,-0.008800,-0.014101,0.999637,0.000000,0.000000,0.000000,0.022000,0.019000,-1.000000,3,11,1,11,37.5418095,127.0795001,34.989,0.793000,1.900000,0.007000,0.013000,-0.023000,0.144000,1000,1000,1000,1000,1000.000000,0,0,0,0,1,0,0,0,0,1781,0.000000,0,0.000000,0.000000,0.000000,0.000000,0.000000,0.000000,0.000000,0.000000,0.000000,0.000000,0.000000,0.000000,0.000000,0.000000,0.000000,0.000000,0.000000,0.000000,0.000000,0.000000,0.000000,0.000000,0.000000,0.000000,0.000000,0.000000,0.000000,0.000000,0.000000,0.000000,0.000000,9.810792,0.000000,0.000000,0.000000,0.000000,0.000000,0.000000,0.000000,0.000000,0.000000,0.000000,0.000000,0.000000,0.000000,0.000000,0.000000,0.000000,0.000000,0.000000,0.000000,0.000000,0.000000,0.000000,0.000000,0.000000,0.000000,0.000000,0.000000,0.000000,0.000000,0.000000,0.000000,0.000000,0.000000,0,0,0,0,0,0.000000,0,0,0,1,0,0,0.000000,0.000000,0.000000,0.000000,0.000000,0.000000,0,1.000422,0.000000,0.000000,0.000000,0.000000,0.000000,0.000000,-1.594304,1.042391,1.594304,-1.042391,-0.254894,0,0
13384,-0.021201,-0.008700,-0.014201,0.999637,0.000000,0.000000,0.000000,0.017000,0.028000,-1.000000,3,11,1,11,37.5418095,127.0795001,34.989,0.793000,1.900000,0.007000,0.013000,-0.023000,0.144000,1000,1000,1000,1000,1000.000000,0,0,0,0,1,0,0,0,0,1827,0.000000,0,0.000000,0.000000,0.000000,0.000000,0.000000,0.000000,0.000000,0.000000,0.000000,0.000000,0.000000,0.000000,0.000000,0.000000,0.000000,0.000000,0.000000,0.000000,0.000000,0.000000,0.000000,0.000000,0.000000,0.000000,0.000000,0.000000,0.000000,0.000000,0.000000,0.000000,0.000000,9.811910,0.000000,0.000000,0.000000,0.000000,0.000000,0.000000,0.000000,0.000000,0.000000,0.000000,0.000000,0.000000,0.000000,0.000000,0.000000,0.000000,0.000000,0.000000,0.000000,0.000000,0.000000,0.000000,0.000000,0.000000,0.000000,0.000000,0.000000,0.000000,0.000000,0.000000,0.000000,0.000000,0.000000,0,0,0,0,0,0.000000,0,0,0,1,0,0,0.000000,0.000000,0.000000,0.000000,0.000000,0.000000,0,1.000536,0.000000,0.000000,0.000000,0.000000,0.000000,0.000000,-1.606002,1.031176,1.606002,-1.031176,0.243811,0,0
13429,-0.021201,-0.008800,-0.014201,0.999636,0.000000,0.000000,0.000000,0.017000,0.028000,-1.001000,3,11,1,11,37.5418095,127.0795001,34.989,0.793000,1.900000,0.007000,0.013000,-0.023000,0.144000,1000,1000,1000,1000,1000.000000,0,0,0,0,1,0,0,0,0,1872,0.000000,0,0.000000,0.000000,0.000000,0.000000,0.000000,0.000000,0.000000,0.000000,0.000000,0.000000,0.000000,0.000000,0.000000,0.000000,0.000000,0.000000,0.000000,0.000000,0.000000,0.000000,0.000000,0.000000,0.000000,0.000000,0.000000,0.000000,0.000000,0.000000,0.000000,0.000000,0.000000,9.821712,0.000000,0.000000,0.000000,0.000000,0.000000,0.000000,0.000000,0.000000,0.000000,0.000000,0.000000,0.000000,0.000000,0.000000,0.000000,0.000000,0.000000,0.000000,0.000000,0.000000,0.000000,0.000000,0.000000,0.000000,0.000000,0.000000,0.000000,0.000000,0.000000,0.000000,0.000000,0.000000,0.000000,0,0,0,0,0,0.000000,0,0,0,1,0,0,0.000000,0.000000,0.000000,0.000000,0.000000,0.000000,0,1.001536,0.000000,0.000000,0.000000,0.000000,0.000000,0.000000,-1.605762,1.042631,1.605762,-1.042631,-0.254565,0,0
13453,-0.021201,-0.008800,-0.014201,0.999636,0.000000,0.000000,0.000000,0.020000,0.028000,-1.003000,3,11,1,11,37.5418095,127.0795001,34.982,0.788000,1.888000,-0.006000,0.001000,-0.014000,0.160000,1000,1000,1000,1000,1000.000000,0,0,0,0,1,0,0,0,0,1896,0.000000,0,0.000000,0.000000,0.000000,0.000000,0.000000,0.000000,0.000000,0.000000,0.000000,0.000000,0.000000,0.000000,0.000000,0.000000,0.000000,0.000000,0.000000,0.000000,0.000000,0.000000,0.000000,0.000000,0.000000,0.000000,0.000000,0.000000,0.000000,0.000000,0.000000,0.000000,0.000000,9.841856,0.000000,0.000000,0.000000,0.000000,0.000000,0.000000,0.000000,0.000000,0.000000,0.000000,0.000000,0.000000,0.000000,0.000000,0.000000,0.000000,0.000000,0.000000,0.000000,0.000000,0.000000,0.000000,0.000000,0.000000,0.000000,0.000000,0.000000,0.000000,0.000000,0.000000,0.000000,0.000000,0.000000,0,0,0,0,0,0.000000,0,0,0,1,0,0,0.000000,0.000000,0.000000,0.000000,0.000000,0.000000,0,1.003590,0.000000,0.000000,0.000000,0.000000,0.000000,0.000000,-1.605762,1.042631,1.605762,-1.042631,0.000000,0,0
13521,-0.021201,-0.008800,-0.014201,0.999636,0.000000,0.000000,0.000000,0.016000,0.026000,-1.001000,3,11,1,11,37.5418095,127.0795001,34.982,0.788000,1.888000,-0.006000,0.001000,-0.014000,0.160000,1000,1000,1000,1000,1000.000000,0,0,0,0,1,0,0,0,0,1963,0.000000,0,0.000000,0.000000,0.000000,0.000000,0.000000,0.000000,0.000000,0.000000,0.000000,0.000000,0.000000,0.000000,0.000000,0.000000,0.000000,0.000000,0.000000,0.000000,0.000000,0.000000,0.000000,0.000000,0.000000,0.000000,0.000000,0.000000,0.000000,0.000000,0.000000,0.000000,0.000000,9.821021,0.000000,0.000000,0.000000,0.000000,0.000000,0.000000,0.000000,0.000000,0.000000,0.000000,0.000000,0.000000,0.000000,0.000000,0.000000,0.000000,0.000000,0.000000,0.000000,0.000000,0.000000,0.000000,0.000000,0.000000,0.000000,0.000000,0.000000,0.000000,0.000000,0.000000,0.000000,0.000000,0.000000,0,0,0,0,0,0.000000,0,0,0,1,0,0,0.000000,0.000000,0.000000,0.000000,0.000000,0.000000,0,1.001465,0.000000,0.000000,0.000000,0.000000,0.000000,0.000000,-1.605762,1.042631,1.605762,-1.042631,0.000000,0,0
13545,-0.021201,-0.008800,-0.014201,0.999636,0.000000,0.000000,0.000000,0.017000,0.028000,-0.999000,3,11,1,11,37.5418095,127.0795001,34.982,0.788000,1.888000,-0.006000,0.001000,-0.014000,0.160000,1000,1000,1000,1000,1000.000000,0,0,0,0,1,0,0,0,0,1988,0.000000,0,0.000000,0.000000,0.000000,0.000000,0.000000,0.000000,0.000000,0.000000,0.000000,0.000000,0.000000,0.000000,0.000000,0.000000,0.000000,0.000000,0.000000,0.000000,0.000000,0.000000,0.000000,0.000000,0.000000,0.000000,0.000000,0.000000,0.000000,0.000000,0.000000,0.000000,0.000000,9.802109,0.000000,0.000000,0.000000,0.000000,0.000000,0.000000,0.000000,0.000000,0.000000,0.000000,0.000000,0.000000,0.000000,0.000000,0.000000,0.000000,0.000000,0.000000,0.000000,0.000000,0.000000,0.000000,0.000000,0.000000,0.000000,0.000000,0.000000,0.000000,0.000000,0.000000,0.000000,0.000000,0.000000,0,0,0,0,0,0.000000,0,0,0,1,0,0,0.000000,0.000000,0.000000,0.000000,0.000000,0.000000,0,0.999537,0.000000,0.000000,0.000000,0.000000,0.000000,0.000000,-1.605762,1.042631,1.605762,-1.042631,0.000000,0,0
13589,-0.021201,-0.008800,-0.014201,0.999636,0.000000,0.000000,0.000000,0.017000,0.029000,-1.000000,3,11,1,11,37.5418096,127.0795001,34.969,0.784000,1.876000,0.008000,-0.007000,-0.009000,0.104000,1000,1000,1000,1000,1000.000000,0,0,0,0,1,0,0,0,0,2032,0.000000,0,0.000000,0.000000,0.000000,0.000000,0.000000,0.000000,0.000000,0.000000,0.000000,0.000000,0.000000,0.000000,0.000000,0.000000,0.000000,0.000000,0.000000,0.000000,0.000000,0.000000,0.000000,0.000000,0.000000,0.000000,0.000000,0.000000,0.000000,0.000000,0.000000,0.000000,0.000000,9.812189,0.000000,0.000000,0.000000,0.000000,0.000000,0.000000,0.000000,0.000000,0.000000,0.000000,0.000000,0.000000,0.000000,0.000000,0.000000,0.000000,0.000000,0.000000,0.000000,0.000000,0.000000,0.000000,0.000000,0.000000,0.000000,0.000000,0.000000,0.000000,0.000000,0.000000,0.000000,0.000000,0.000000,0,0,0,0,0,0.000000,0,0,0,1,0,0,0.000000,0.000000,0.000000,0.000000,0.000000,0.000000,0,1.000565,0.000000,0.000000,0.000000,0.000000,0.000000,0.000000,-1.605762,1.042631,1.605762,-1.042631,0.000000,0,0
13613,-0.021201,-0.008800,-0.014201,0.999636,0.000000,0.000000,0.000000,0.018000,0.027000,-1.002000,3,11,1,11,37.5418096,127.0795001,34.969,0.784000,1.876000,0.008000,-0.007000,-0.009000,0.104000,1000,1000,1000,1000,1000.000000,0,0,0,0,1,0,0,0,0,2056,0.000000,0,0.000000,0.000000,0.000000,0.000000,0.000000,0.000000,0.000000,0.000000,0.000000,0.000000,0.000000,0.000000,0.000000,0.000000,0.000000,0.000000,0.000000,0.000000,0.000000,0.000000,0.000000,0.000000,0.000000,0.000000,0.000000,0.000000,0.000000,0.000000,0.000000,0.000000,0.000000,9.831415,0.000000,0.000000,0.000000,0.000000,0.000000,0.000000,0.000000,0.000000,0.000000,0.000000,0.000000,0.000000,0.000000,0.000000,0.000000,0.000000,0.000000,0.000000,0.000000,0.000000,0.000000,0.000000,0.000000,0.000000,0.000000,0.000000,0.000000,0.000000,0.000000,0.000000,0.000000,0.000000,0.000000,0,0,0,0,0,0.000000,0,0,0,1,0,0,0.000000,0.000000,0.000000,0.000000,0.000000,0.000000,0,1.002525,0.000000,0.000000,0.000000,0.000000,0.000000,0.000000,-1.605762,1.042631,1.605762,-1.042631,0.000000,0,0
13688,-0.021201,-0.008700,-0.014201,0.999637,0.000000,0.000000,0.000000,0.020000,0.027000,-1.001000,3,11,1,11,37.5418096,127.0795002,34.963,0.779000,1.865000,0.007000,0.014000,-0.009000,0.126000,1000,1000,1000,1000,1000.000000,0,0,0,0,1,0,0,0,0,2131,0.000000,0,0.000000,0.000000,0.000000,0.000000,0.000000,0.000000,0.000000,0.000000,0.000000,0.000000,0.000000,0.000000,0.000000,0.000000,0.000000,0.000000,0.000000,0.000000,0.000000,0.000000,0.000000,0.000000,0.000000,0.000000,0.000000,0.000000,0.000000,0.000000,0.000000,0.000000,0.000000,9.821985,0.000000,0.000000,0.000000,0.000000,0.000000,0.000000,0.000000,0.000000,0.000000,0.000000,0.000000,0.000000,0.000000,0.000000,0.000000,0.000000,0.000000,0.000000,0.000000,0.000000,0.000000,0.000000,0.000000,0.000000,0.000000,0.000000,0.000000,0.000000,0.000000,0.000000,0.000000,0.000000,0.000000,0,0,0,0,0,0.000000,0,0,0,1,0,0,0.000000,0.000000,0.000000,0.000000,0.000000,0.000000,0,1.001564,0.000000,0.000000,0.000000,0.000000,0.000000,0.000000,-1.606002,1.031176,1.606002,-1.031176,0.152739,0,0
13712,-0.021201,-0.008700,-0.014201,0.999637,0.000000,0.000000,0.000000,0.018000,0.028000,-1.001000,3,11,1,11,37.5418096,127.0795002,34.963,0.779000,1.865000,0.007000,0.014000,-0.009000,0.126000,1000,1000,1000,1000,1000.000000,0,0,0,0,1,0,0,0,0,2155,0.000000,0,0.000000,0.000000,0.000000,0.000000,0.000000,0.000000,0.000000,0.000000,0.000000,0.000000,0.000000,0.000000,0.000000,0.000000,0.000000,0.000000,0.000000,0.000000,0.000000,0.000000,0.000000,0.000000,0.000000,0.000000,0.000000,0.000000,0.000000,0.000000,0.000000,0.000000,0.000000,9.821883,0.000000,0.000000,0.000000,0.000000,0.000000,0.000000,0.000000,0.000000,0.000000,0.000000,0.000000,0.000000,0.000000,0.000000,0.000000,0.000000,0.000000,0.000000,0.000000,0.000000,0.000000,0.000000,0.000000,0.000000,0.000000,0.000000,0.000000,0.000000,0.000000,0.000000,0.000000,0.000000,0.000000,0,0,0,0,0,0.000000,0,0,0,1,0,0,0.000000,0.000000,0.000000,0.000000,0.000000,0.000000,0,1.001553,0.000000,0.000000,0.000000,0.000000,0.000000,0.000000,-1.606002,1.031176,1.606002,-1.031176,0.000000,0,0
13739,-0.021201,-0.008700,-0.014201,0.999637,0.000000,0.000000,0.000000,0.019000,0.027000,-1.001000,3,11,1,11,37.5418096,127.0795002,34.963,0.779000,1.865000,0.007000,0.014000,-0.009000,0.126000,1000,1000,1000,1000,1000.000000,0,0,0,0,1,0,0,0,0,2181,0.000000,0,0.000000,0.000000,0.000000,0.000000,0.000000,0.000000,0.000000,0.000000,0.000000,0.000000,0.000000,0.000000,0.000000,0.000000,0.000000,0.000000,0.000000,0.000000,0.000000,0.000000,0.000000,0.000000,0.000000,0.000000,0.000000,0.000000,0.000000,0.000000,0.000000,0.000000,0.000000,9.821795,0.000000,0.000000,0.000000,0.000000,0.000000,0.000000,0.000000,0.000000,0.000000,0.000000,0.000000,0.000000,0.000000,0.000000,0.000000,0.000000,0.000000,0.000000,0.000000,0.000000,0.000000,0.000000,0.000000,0.000000,0.000000,0.000000,0.000000,0.000000,0.000000,0.000000,0.000000,0.000000,0.000000,0,0,0,0,0,0.000000,0,0,0,1,0,0,0.000000,0.000000,0.000000,0.000000,0.000000,0.000000,0,1.001544,0.000000,0.000000,0.000000,0.000000,0.000000,0.000000,-1.606002,1.031176,1.606002,-1.031176,0.000000,0,0
13784,-0.021201,-0.008700,-0.014201,0.999637,0.000000,0.000000,0.000000,0.018000,0.027000,-1.002000,3,11,1,11,37.5418096,127.0795002,34.963,0.779000,1.865000,0.007000,0.014000,-0.009000,0.126000,1000,1000,1000,1000,1000.000000,0,0,0,0,1,0,0,0,0,2227,0.000000,0,0.000000,0.000000,0.000000,0.000000,0.000000,0.000000,0.000000,0.000000,0.000000,0.000000,0.000000,0.000000,0.000000,0.000000,0.000000,0.000000,0.000000,0.000000,0.000000,0.000000,0.000000,0.000000,0.000000,0.000000,0.000000,0.000000,0.000000,0.000000,0.000000,0.000000,0.000000,9.831415,0.000000,0.000000,0.000000,0.000000,0.000000,0.000000,0.000000,0.000000,0.000000,0.000000,0.000000,0.000000,0.000000,0.000000,0.000000,0.000000,0.000000,0.000000,0.000000,0.000000,0.000000,0.000000,0.000000,0.000000,0.000000,0.000000,0.000000,0.000000,0.000000,0.000000,0.000000,0.000000,0.000000,0,0,0,0,0,0.000000,0,0,0,1,0,0,0.000000,0.000000,0.000000,0.000000,0.000000,0.000000,0,1.002525,0.000000,0.000000,0.000000,0.000000,0.000000,0.000000,-1.606002,1.031176,1.606002,-1.031176,0.000000,0,0
13829,-0.021201,-0.008700,-0.014201,0.999637,0.000000,0.000000,0.000000,0.018000,0.026000,-1.002000,3,11,1,11,37.5418096,127.0795002,34.951,0.775000,1.854000,-0.003000,-0.004000,-0.017000,0.159000,1000,1000,1000,1000,1000.000000,0,0,0,0,1,0,0,0,0,2272,0.000000,0,0.000000,0.000000,0.000000,0.000000,0.000000,0.000000,0.000000,0.000000,0.000000,0.000000,0.000000,0.000000,0.000000,0.000000,0.000000,0.000000,0.000000,0.000000,0.000000,0.000000,0.000000,0.000000,0.000000,0.000000,0.000000,0.000000,0.000000,0.000000,0.000000,0.000000,0.000000,9.831156,0.000000,0.000000,0.000000,0.000000,0.000000,0.000000,0.000000,0.000000,0.000000,0.000000,0.000000,0.000000,0.000000,0.000000,0.000000,0.000000,0.000000,0.000000,0.000000,0.000000,0.000000,0.000000,0.000000,0.000000,0.000000,0.000000,0.000000,0.000000,0.000000,0.000000,0.000000,0.000000,0.000000,0,0,0,0,0,0.000000,0,0,0,1,0,0,0.000000,0.000000,0.000000,0.000000,0.000000,0.000000,0,1.002499,0.000000,0.000000,0.000000,0.000000,0.000000,0.000000,-1.606002,1.031176,1.606002,-1.031176,0.000000,0,0
13853,-0.021201,-0.008700,-0.014201,0.999637,0.000000,0.000000,0.000000,0.017000,0.028000,-1.000000,3,11,1,11,37.5418096,127.0795002,34.951,0.775000,1.854000,-0.003000,-0.004000,-0.017000,0.159000,1000,1000,1000,1000,1000.000000,0,0,0,0,1,0,0,0,0,2296,0.000000,0,0.000000,0.000000,0.000000,0.000000,0.000000,0.000000,0.000000,0.000000,0.000000,0.000000,0.000000,0.000000,0.000000,0.000000,0.000000,0.000000,0.000000,0.000000,0.000000,0.000000,0.000000,0.000000,0.000000,0.000000,0.000000,0.000000,0.000000,0.000000,0.000000,0.000000,0.000000,9.811910,0.000000,0.000000,0.000000,0.000000,0.000000,0.000000,0.000000,0.000000,0.000000,0.000000,0.000000,0.000000,0.000000,0.000000,0.000000,0.000000,0.000000,0.000000,0.000000,0.000000,0.000000,0.000000,0.000000,0.000000,0.000000,0.000000,0.000000,0.000000,0.000000,0.000000,0.000000,0.000000,0.000000,0,0,0,0,0,0.000000,0,0,0,1,0,0,0.000000,0.000000,0.000000,0.000000,0.000000,0.000000,0,1.000536,0.000000,0.000000,0.000000,0.000000,0.000000,0.000000,-1.606002,1.031176,1.606002,-1.031176,0.000000,0,0
13900,-0.021201,-0.008700,-0.014201,0.999637,0.000000,0.000000,0.000000,0.017000,0.027000,-1.001000,3,11,1,11,37.5418096,127.0795002,34.951,0.775000,1.854000,-0.003000,-0.004000,-0.017000,0.159000,1000,1000,1000,1000,1000.000000,0,0,0,0,1,0,0,0,0,2343,0.000000,0,0.000000,0.000000,0.000000,0.000000,0.000000,0.000000,0.000000,0.000000,0.000000,0.000000,0.000000,0.000000,0.000000,0.000000,0.000000,0.000000,0.000000,0.000000,0.000000,0.000000,0.000000,0.000000,0.000000,0.000000,0.000000,0.000000,0.000000,0.000000,0.000000,0.000000,0.000000,9.821442,0.000000,0.000000,0.000000,0.000000,0.000000,0.000000,0.000000,0.000000,0.000000,0.000000,0.000000,0.000000,0.000000,0.000000,0.000000,0.000000,0.000000,0.000000,0.000000,0.000000,0.000000,0.000000,0.000000,0.000000,0.000000,0.000000,0.000000,0.000000,0.000000,0.000000,0.000000,0.000000,0.000000,0,0,0,0,0,0.000000,0,0,0,1,0,0,0.000000,0.000000,0.000000,0.000000,0.000000,0.000000,0,1.001508,0.000000,0.000000,0.000000,0.000000,0.000000,0.000000,-1.606002,1.031176,1.606002,-1.031176,0.000000,0,0
13953,-0.021201,-0.008700,-0.014201,0.999637,0.000000,0.000000,0.000000,0.017000,0.027000,-1.001000,3,11,1,11,37.5418096,127.0795002,34.922,0.771000,1.844000,-0.003000,-0.004000,-0.014000,0.156000,1000,1000,1000,1000,1000.000000,0,0,0,0,1,0,0,0,0,2396,0.000000,0,0.000000,0.000000,0.000000,0.000000,0.000000,0.000000,0.000000,0.000000,0.000000,0.000000,0.000000,0.000000,0.000000,0.000000,0.000000,0.000000,0.000000,0.000000,0.000000,0.000000,0.000000,0.000000,0.000000,0.000000,0.000000,0.000000,0.000000,0.000000,0.000000,0.000000,0.000000,9.821442,0.000000,0.000000,0.000000,0.000000,0.000000,0.000000,0.000000,0.000000,0.000000,0.000000,0.000000,0.000000,0.000000,0.000000,0.000000,0.000000,0.000000,0.000000,0.000000,0.000000,0.000000,0.000000,0.000000,0.000000,0.000000,0.000000,0.000000,0.000000,0.000000,0.000000,0.000000,0.000000,0.000000,0,0,0,0,0,0.000000,0,0,0,1,0,0,0.000000,0.000000,0.000000,0.000000,0.000000,0.000000,0,1.001508,0.000000,0.000000,0.000000,0.000000,0.000000,0.000000,-1.606002,1.031176,1.606002,-1.031176,0.000000,0,0
14021,-0.021201,-0.008700,-0.014201,0.999637,0.000000,0.000000,0.000000,0.019000,0.027000,-1.001000,3,11,1,11,37.5418096,127.0795002,34.922,0.771000,1.844000,-0.003000,-0.004000,-0.014000,0.156000,1000,1000,1000,1000,1000.000000,0,0,0,0,1,0,0,0,0,2464,0.000000,0,0.000000,0.000000,0.000000,0.000000,0.000000,0.000000,0.000000,0.000000,0.000000,0.000000,0.000000,0.000000,0.000000,0.000000,0.000000,0.000000,0.000000,0.000000,0.000000,0.000000,0.000000,0.000000,0.000000,0.000000,0.000000,0.000000,0.000000,0.000000,0.000000,0.000000,0.000000,9.821795,0.000000,0.000000,0.000000,0.000000,0.000000,0.000000,0.000000,0.000000,0.000000,0.000000,0.000000,0.000000,0.000000,0.000000,0.000000,0.000000,0.000000,0.000000,0.000000,0.000000,0.000000,0.000000,0.000000,0.000000,0.000000,0.000000,0.000000,0.000000,0.000000,0.000000,0.000000,0.000000,0.000000,0,0,0,0,0,0.000000,0,0,0,1,0,0,0.000000,0.000000,0.000000,0.000000,0.000000,0.000000,0,1.001544,0.000000,0.000000,0.000000,0.000000,0.000000,0.000000,-1.606002,1.031176,1.606002,-1.031176,0.000000,0,0
14065,-0.021201,-0.008700,-0.014201,0.999637,0.000000,0.000000,0.000000,0.017000,0.026000,-1.001000,3,11,1,11,37.5418096,127.0795002,34.908,0.766000,1.833000,0.006000,0.025000,-0.008000,0.130000,1000,1000,1000,1000,1000.000000,0,0,0,0,1,0,0,0,0,2508,0.000000,0,0.000000,0.000000,0.000000,0.000000,0.000000,0.000000,0.000000,0.000000,0.000000,0.000000,0.000000,0.000000,0.000000,0.000000,0.000000,0.000000,0.000000,0.000000,0.000000,0.000000,0.000000,0.000000,0.000000,0.000000,0.000000,0.000000,0.000000,0.000000,0.000000,0.000000,0.000000,9.821182,0.000000,0.000000,0.000000,0.000000,0.000000,0.000000,0.000000,0.000000,0.000000,0.000000,0.000000,0.000000,0.000000,0.000000,0.000000,0.000000,0.000000,0.000000,0.000000,0.000000,0.000000,0.000000,0.000000,0.000000,0.000000,0.000000,0.000000,0.000000,0.000000,0.000000,0.000000,0.000000,0.000000,0,0,0,0,0,0.000000,0,0,0,1,0,0,0.000000,0.000000,0.000000,0.000000,0.000000,0.000000,0,1.001482,0.000000,0.000000,0.000000,0.000000,0.000000,0.000000,-1.606002,1.031176,1.606002,-1.031176,0.000000,0,0
14110,-0.021201,-0.008700,-0.014101,0.999638,0.000000,0.000000,0.000000,0.018000,0.026000,-1.001000,3,11,1,11,37.5418096,127.0795002,34.908,0.766000,1.833000,0.006000,0.025000,-0.008000,0.130000,1000,1000,1000,1000,1000.000000,0,0,0,0,1,0,0,0,0,2552,0.000000,0,0.000000,0.000000,0.000000,0.000000,0.000000,0.000000,0.000000,0.000000,0.000000,0.000000,0.000000,0.000000,0.000000,0.000000,0.000000,0.000000,0.000000,0.000000,0.000000,0.000000,0.000000,0.000000,0.000000,0.000000,0.000000,0.000000,0.000000,0.000000,0.000000,0.000000,0.000000,9.821355,0.000000,0.000000,0.000000,0.000000,0.000000,0.000000,0.000000,0.000000,0.000000,0.000000,0.000000,0.000000,0.000000,0.000000,0.000000,0.000000,0.000000,0.000000,0.000000,0.000000,0.000000,0.000000,0.000000,0.000000,0.000000,0.000000,0.000000,0.000000,0.000000,0.000000,0.000000,0.000000,0.000000,0,0,0,0,0,0.000000,0,0,0,1,0,0,0.000000,0.000000,0.000000,0.000000,0.000000,0.000000,0,1.001499,0.000000,0.000000,0.000000,0.000000,0.000000,0.000000,-1.594545,1.030935,1.594545,-1.030935,0.005338,0,0
14153,-0.021201,-0.008700,-0.014101,0.999638,0.000000,0.000000,0.000000,0.017000,0.029000,-1.000000,3,11,1,11,37.5418096,127.0795002,34.908,0.766000,1.833000,0.006000,0.025000,-0.008000,0.130000,1000,1000,1000,1000,1000.000000,0,0,0,0,1,0,0,0,0,2596,0.000000,0,0.000000,0.000000,0.000000,0.000000,0.000000,0.000000,0.000000,0.000000,0.000000,0.000000,0.000000,0.000000,0.000000,0.000000,0.000000,0.000000,0.000000,0.000000,0.000000,0.000000,0.000000,0.000000,0.000000,0.000000,0.000000,0.000000,0.000000,0.000000,0.000000,0.000000,0.000000,9.812189,0.000000,0.000000,0.000000,0.000000,0.000000,0.000000,0.000000,0.000000,0.000000,0.000000,0.000000,0.000000,0.000000,0.000000,0.000000,0.000000,0.000000,0.000000,0.000000,0.000000,0.000000,0.000000,0.000000,0.000000,0.000000,0.000000,0.000000,0.000000,0.000000,0.000000,0.000000,0.000000,0.000000,0,0,0,0,0,0.000000,0,0,0,1,0,0,0.000000,0.000000,0.000000,0.000000,0.000000,0.000000,0,1.000565,0.000000,0.000000,0.000000,0.000000,0.000000,0.000000,-1.594545,1.030935,1.594545,-1.030935,0.000000,0,0
14187,-0.021201,-0.008700,-0.014101,0.999638,0.000000,0.000000,0.000000,0.018000,0.028000,-1.001000,3,11,1,11,37.5418096,127.0795002,34.901,0.762000,1.823000,0.003000,-0.009000,-0.013000,0.109000,1000,1000,1000,1000,1000.000000,0,0,0,0,1,0,0,0,0,2630,0.000000,0,0.000000,0.000000,0.000000,0.000000,0.000000,0.000000,0.000000,0.000000,0.000000,0.000000,0.000000,0.000000,0.000000,0.000000,0.000000,0.000000,0.000000,0.000000,0.000000,0.000000,0.000000,0.000000,0.000000,0.000000,0.000000,0.000000,0.000000,0.000000,0.000000,0.000000,0.000000,9.821883,0.000000,0.000000,0.000000,0.000000,0.000000,0.000000,0.000000,0.000000,0.000000,0.000000,0.000000,0.000000,0.000000,0.000000,0.000000,0.000000,0.000000,0.000000,0.000000,0.000000,0.000000,0.000000,0.000000,0.000000,0.000000,0.000000,0.000000,0.000000,0.000000,0.000000,0.000000,0.000000,0.000000,0,0,0,0,0,0.000000,0,0,0,1,0,0,0.000000,0.000000,0.000000,0.000000,0.000000,0.000000,0,1.001553,0.000000,0.000000,0.000000,0.000000,0.000000,0.000000,-1.594545,1.030935,1.594545,-1.030935,0.000000,0,0
14232,-0.021201,-0.008700,-0.014101,0.999638,0.000000,0.000000,0.000000,0.017000,0.026000,-1.001000,3,11,1,11,37.5418096,127.0795002,34.901,0.762000,1.823000,0.003000,-0.009000,-0.013000,0.109000,1000,1000,1000,1000,1000.000000,0,0,0,0,1,0,0,0,0,2675,0.000000,0,0.000000,0.000000,0.000000,0.000000,0.000000,0.000000,0.000000,0.000000,0.000000,0.000000,0.000000,0.000000,0.000000,0.000000,0.000000,0.000000,0.000000,0.000000,0.000000,0.000000,0.000000,0.000000,0.000000,0.000000,0.000000,0.000000,0.000000,0.000000,0.000000,0.000000,0.000000,9.821182,0.000000,0.000000,0.000000,0.000000,0.000000,0.000000,0.000000,0.000000,0.000000,0.000000,0.000000,0.000000,0.000000,0.000000,0.000000,0.000000,0.000000,0.000000,0.000000,0.000000,0.000000,0.000000,0.000000,0.000000,0.000000,0.000000,0.000000,0.000000,0.000000,0.000000,0.000000,0.000000,0.000000,0,0,0,0,0,0.000000,0,0,0,1,0,0,0.000000,0.000000,0.000000,0.000000,0.000000,0.000000,0,1.001482,0.000000,0.000000,0.000000,0.000000,0.000000,0.000000,-1.594545,1.030935,1.594545,-1.030935,0.000000,0,0
14279,-0.021201,-0.008700,-0.014201,0.999637,0.000000,0.000000,0.000000,0.018000,0.028000,-1.001000,3,11,1,11,37.5418096,127.0795002,34.901,0.762000,1.823000,0.003000,-0.009000,-0.013000,0.109000,1000,1000,1000,1000,1000.000000,0,0,0,0,1,0,0,0,0,2722,0.000000,0,0.000000,0.000000,0.000000,0.000000,0.000000,0.000000,0.000000,0.000000,0.000000,0.000000,0.000000,0.000000,0.000000,0.000000,0.000000,0.000000,0.000000,0.000000,0.000000,0.000000,0.000000,0.000000,0.000000,0.000000,0.000000,0.000000,0.000000,0.000000,0.000000,0.000000,0.000000,9.821883,0.000000,0.000000,0.000000,0.000000,0.000000,0.000000,0.000000,0.000000,0.000000,0.000000,0.000000,0.000000,0.000000,0.000000,0.000000,0.000000,0.000000,0.000000,0.000000,0.000000,0.000000,0.000000,0.000000,0.000000,0.000000,0.000000,0.000000,0.000000,0.000000,0.000000,0.000000,0.000000,0.000000,0,0,0,0,0,0.000000,0,0,0,1,0,0,0.000000,0.000000,0.000000,0.000000,0.000000,0.000000,0,1.001553,0.000000,0.000000,0.000000,0.000000,0.000000,0.000000,-1.606002,1.031176,1.606002,-1.031176,-0.005111,0,0
14348,-0.021201,-0.008700,-0.014201,0.999637,0.000000,0.000000,0.000000,0.018000,0.027000,-1.003000,3,11,1,11,37.5418096,127.0795003,34.898,0.758000,1.813000,-0.005000,0.011000,-0.017000,0.160000,1000,1000,1000,1000,1000.000000,0,0,0,0,1,0,0,0,0,2791,0.000000,0,0.000000,0.000000,0.000000,0.000000,0.000000,0.000000,0.000000,0.000000,0.000000,0.000000,0.000000,0.000000,0.000000,0.000000,0.000000,0.000000,0.000000,0.000000,0.000000,0.000000,0.000000,0.000000,0.000000,0.000000,0.000000,0.000000,0.000000,0.000000,0.000000,0.000000,0.000000,9.841216,0.000000,0.000000,0.000000,0.000000,0.000000,0.000000,0.000000,0.000000,0.000000,0.000000,0.000000,0.000000,0.000000,0.000000,0.000000,0.000000,0.000000,0.000000,0.000000,0.000000,0.000000,0.000000,0.000000,0.000000,0.000000,0.000000,0.000000,0.000000,0.000000,0.000000,0.000000,0.000000,0.000000,0,0,0,0,0,0.000000,0,0,0,1,0,0,0.000000,0.000000,0.000000,0.000000,0.000000,0.000000,0,1.003525,0.000000,0.000000,0.000000,0.000000,0.000000,0.000000,-1.606002,1.031176,1.606002,-1.031176,0.000000,0,0
14392,-0.021201,-0.008700,-0.014101,0.999638,0.000000,0.000000,0.000000,0.018000,0.028000,-1.002000,3,11,1,11,37.5418096,127.0795003,34.898,0.758000,1.813000,-0.005000,0.011000,-0.017000,0.160000,1000,1000,1000,1000,1000.000000,0,0,0,0,1,0,0,0,0,2835,0.000000,0,0.000000,0.000000,0.000000,0.000000,0.000000,0.000000,0.000000,0.000000,0.000000,0.000000,0.000000,0.000000,0.000000,0.000000,0.000000,0.000000,0.000000,0.000000,0.000000,0.000000,0.000000,0.000000,0.000000,0.000000,0.000000,0.000000,0.000000,0.000000,0.000000,0.000000,0.000000,9.831684,0.000000,0.000000,0.000000,0.000000,0.000000,0.000000,0.000000,0.000000,0.000000,0.000000,0.000000,0.000000,0.000000,0.000000,0.000000,0.000000,0.000000,0.000000,0.000000,0.000000,0.000000,0.000000,0.000000,0.000000,0.000000,0.000000,0.000000,0.000000,0.000000,0.000000,0.000000,0.000000,0.000000,0,0,0,0,0,0.000000,0,0,0,1,0,0,0.000000,0.000000,0.000000,0.000000,0.000000,0.000000,0,1.002553,0.000000,0.000000,0.000000,0.000000,0.000000,0.000000,-1.594545,1.030935,1.594545,-1.030935,0.005459,0,0
14436,-0.021201,-0.008700,-0.014101,0.999638,0.000000,0.000000,0.000000,0.019000,0.028000,-1.002000,3,11,1,11,37.5418096,127.0795003,34.884,0.754000,1.803000,-0.015000,0.009000,-0.010000,0.141000,1000,1000,1000,1000,1000.000000,0,0,0,0,1,0,0,0,0,2879,0.000000,0,0.000000,0.000000,0.000000,0.000000,0.000000,0.000000,0.000000,0.000000,0.000000,0.000000,0.000000,0.000000,0.000000,0.000000,0.000000,0.000000,0.000000,0.000000,0.000000,0.000000,0.000000,0.000000,0.000000,0.000000,0.000000,0.000000,0.000000,0.000000,0.000000,0.000000,0.000000,9.831865,0.000000,0.000000,0.000000,0.000000,0.000000,0.000000,0.000000,0.000000,0.000000,0.000000,0.000000,0.000000,0.000000,0.000000,0.000000,0.000000,0.000000,0.000000,0.000000,0.000000,0.000000,0.000000,0.000000,0.000000,0.000000,0.000000,0.000000,0.000000,0.000000,0.000000,0.000000,0.000000,0.000000,0,0,0,0,0,0.000000,0,0,0,1,0,0,0.000000,0.000000,0.000000,0.000000,0.000000,0.000000,0,1.002571,0.000000,0.000000,0.000000,0.000000,0.000000,0.000000,-1.594545,1.030935,1.594545,-1.030935,0.000000,0,0
14480,-0.021201,-0.008700,-0.014101,0.999638,0.000000,0.000000,0.000000,0.017000,0.029000,-1.002000,3,11,1,11,37.5418096,127.0795003,34.884,0.754000,1.803000,-0.015000,0.009000,-0.010000,0.141000,1000,1000,1000,1000,1000.000000,0,0,0,0,1,0,0,0,0,2923,0.000000,0,0.000000,0.000000,0.000000,0.000000,0.000000,0.000000,0.000000,0.000000,0.000000,0.000000,0.000000,0.000000,0.000000,0.000000,0.000000,0.000000,0.000000,0.000000,0.000000,0.000000,0.000000,0.000000,0.000000,0.000000,0.000000,0.000000,0.000000,0.000000,0.000000,0.000000,0.000000,9.831792,0.000000,0.000000,0.000000,0.000000,0.000000,0.000000,0.000000,0.000000,0.000000,0.000000,0.000000,0.000000,0.000000,0.000000,0.000000,0.000000,0.000000,0.000000,0.000000,0.000000,0.000000,0.000000,0.000000,0.000000,0.000000,0.000000,0.000000,0.000000,0.000000,0.000000,0.000000,0.000000,0.000000,0,0,0,0,0,0.000000,0,0,0,1,0,0,0.000000,0.000000,0.000000,0.000000,0.000000,0.000000,0,1.002564,0.000000,0.000000,0.000000,0.000000,0.000000,0.000000,-1.594545,1.030935,1.594545,-1.030935,0.000000,0,0
14524,-0.021201,-0.008700,-0.014101,0.999638,0.000000,0.000000,0.000000,0.017000,0.028000,-1.000000,3,11,1,11,37.5418096,127.0795003,34.884,0.754000,1.803000,-0.015000,0.009000,-0.010000,0.141000,1000,1000,1000,1000,1000.000000,0,0,0,0,1,0,0,0,0,2967,0.000000,0,0.000000,0.000000,0.000000,0.000000,0.000000,0.000000,0.000000,0.000000,0.000000,0.000000,0.000000,0.000000,0.000000,0.000000,0.000000,0.000000,0.000000,0.000000,0.000000,0.000000,0.000000,0.000000,0.000000,0.000000,0.000000,0.000000,0.000000,0.000000,0.000000,0.000000,0.000000,9.811910,0.000000,0.000000,0.000000,0.000000,0.000000,0.000000,0.000000,0.000000,0.000000,0.000000,0.000000,0.000000,0.000000,0.000000,0.000000,0.000000,0.000000,0.000000,0.000000,0.000000,0.000000,0.000000,0.000000,0.000000,0.000000,0.000000,0.000000,0.000000,0.000000,0.000000,0.000000,0.000000,0.000000,0,0,0,0,0,0.000000,0,0,0,1,0,0,0.000000,0.000000,0.000000,0.000000,0.000000,0.000000,0,1.000536,0.000000,0.000000,0.000000,0.000000,0.000000,0.000000,-1.594545,1.030935,1.594545,-1.030935,0.000000,0,0
14548,-0.021201,-0.008700,-0.014101,0.999638,0.000000,0.000000,0.000000,0.018000,0.027000,-1.003000,3,11,1,11,37.5418096,127.0795003,34.884,0.754000,1.803000,-0.015000,0.009000,-0.010000,0.141000,1000,1000,1000,1000,1000.000000,0,0,0,0,1,0,0,0,0,2991,0.000000,0,0.000000,0.000000,0.000000,0.000000,0.000000,0.000000,0.000000,0.000000,0.000000,0.000000,0.000000,0.000000,0.000000,0.000000,0.000000,0.000000,0.000000,0.000000,0.000000,0.000000,0.000000,0.000000,0.000000,0.000000,0.000000,0.000000,0.000000,0.000000,0.000000,0.000000,0.000000,9.841216,0.000000,0.000000,0.000000,0.000000,0.000000,0.000000,0.000000,0.000000,0.000000,0.000000,0.000000,0.000000,0.000000,0.000000,0.000000,0.000000,0.000000,0.000000,0.000000,0.000000,0.000000,0.000000,0.000000,0.000000,0.000000,0.000000,0.000000,0.000000,0.000000,0.000000,0.000000,0.000000,0.000000,0,0,0,0,0,0.000000,0,0,0,1,0,0,0.000000,0.000000,0.000000,0.000000,0.000000,0.000000,0,1.003525,0.000000,0.000000,0.000000,0.000000,0.000000,0.000000,-1.594545,1.030935,1.594545,-1.030935,0.000000,0,0
14596,-0.021201,-0.008700,-0.014101,0.999638,0.000000,0.000000,0.000000,0.018000,0.027000,-1.001000,3,11,1,11,37.5418096,127.0795003,34.876,0.750000,1.794000,0.001000,-0.007000,-0.009000,0.099000,1000,1000,1000,1000,1000.000000,0,0,0,0,0,1,0,0,0,3039,0.000000,0,0.000000,0.000000,0.000000,0.000000,0.000000,0.000000,0.000000,0.000000,0.000000,0.000000,0.000000,0.000000,0.000000,0.000000,0.000000,0.000000,0.000000,0.000000,0.000000,0.000000,0.000000,0.000000,0.000000,0.000000,0.000000,0.000000,0.000000,0.000000,0.000000,0.000000,0.000000,9.821614,0.000000,0.000000,0.000000,0.000000,0.000000,0.000000,0.000000,0.000000,0.000000,0.000000,0.000000,0.000000,0.000000,0.000000,0.000000,0.000000,0.000000,0.000000,0.000000,0.000000,0.000000,0.000000,0.000000,0.000000,0.000000,0.000000,0.000000,0.000000,0.000000,0.000000,0.000000,0.000000,0.000000,0,0,0,0,0,0.000000,0,0,0,1,0,0,0.000000,0.000000,0.000000,0.000000,0.000000,0.000000,0,1.001526,0.000000,0.000000,0.000000,0.000000,0.000000,0.000000,-1.594545,1.030935,1.594545,-1.030935,0.000000,0,0
14661,-0.021201,-0.008700,-0.014101,0.999638,0.000000,0.000000,0.000000,0.018000,0.027000,-1.001000,3,11,1,11,37.5418096,127.0795003,34.876,0.750000,1.794000,0.001000,-0.007000,-0.009000,0.099000,1000,1000,1000,1000,1000.000000,0,0,0,0,0,1,0,0,0,3104,0.000000,0,0.000000,0.000000,0.000000,0.000000,0.000000,0.000000,0.000000,0.000000,0.000000,0.000000,0.000000,0.000000,0.000000,0.000000,0.000000,0.000000,0.000000,0.000000,0.000000,0.000000,0.000000,0.000000,0.000000,0.000000,0.000000,0.000000,0.000000,0.000000,0.000000,0.000000,0.000000,9.821614,0.000000,0.000000,0.000000,0.000000,0.000000,0.000000,0.000000,0.000000,0.000000,0.000000,0.000000,0.000000,0.000000,0.000000,0.000000,0.000000,0.000000,0.000000,0.000000,0.000000,0.000000,0.000000,0.000000,0.000000,0.000000,0.000000,0.000000,0.000000,0.000000,0.000000,0.000000,0.000000,0.000000,0,0,0,0,0,0.000000,0,0,0,1,0,0,0.000000,0.000000,0.000000,0.000000,0.000000,0.000000,0,1.001526,0.000000,0.000000,0.000000,0.000000,0.000000,0.000000,-1.594545,1.030935,1.594545,-1.030935,0.000000,0,0
14685,-0.021201,-0.008700,-0.014201,0.999637,0.000000,0.000000,0.000000,0.018000,0.027000,-1.002000,3,11,1,11,37.5418096,127.0795003,34.872,0.746000,1.785000,-0.002000,0.008000,-0.005000,0.133000,1000,1000,1000,1000,1000.000000,0,0,0,0,0,1,0,0,0,3128,0.000000,0,0.000000,0.000000,0.000000,0.000000,0.000000,0.000000,0.000000,0.000000,0.000000,0.000000,0.000000,0.000000,0.000000,0.000000,0.000000,0.000000,0.000000,0.000000,0.000000,0.000000,0.000000,0.000000,0.000000,0.000000,0.000000,0.000000,0.000000,0.000000,0.000000,0.000000,0.000000,9.831415,0.000000,0.000000,0.000000,0.000000,0.000000,0.000000,0.000000,0.000000,0.000000,0.000000,0.000000,0.000000,0.000000,0.000000,0.000000,0.000000,0.000000,0.000000,0.000000,0.000000,0.000000,0.000000,0.000000,0.000000,0.000000,0.000000,0.000000,0.000000,0.000000,0.000000,0.000000,0.000000,0.000000,0,0,0,0,0,0.000000,0,0,0,1,0,0,0.000000,0.000000,0.000000,0.000000,0.000000,0.000000,0,1.002525,0.000000,0.000000,0.000000,0.000000,0.000000,0.000000,-1.606002,1.031176,1.606002,-1.031176,-0.010009,0,0
14745,-0.021201,-0.008700,-0.014101,0.999638,0.000000,0.000000,0.000000,0.019000,0.027000,-1.001000,3,11,1,11,37.5418096,127.0795003,34.872,0.746000,1.785000,-0.002000,0.008000,-0.005000,0.133000,1000,1000,1000,1000,1000.000000,0,0,0,0,0,1,0,0,0,3188,0.000000,0,0.000000,0.000000,0.000000,0.000000,0.000000,0.000000,0.000000,0.000000,0.000000,0.000000,0.000000,0.000000,0.000000,0.000000,0.000000,0.000000,0.000000,0.000000,0.000000,0.000000,0.000000,0.000000,0.000000,0.000000,0.000000,0.000000,0.000000,0.000000,0.000000,0.000000,0.000000,9.821795,0.000000,0.000000,0.000000,0.000000,0.000000,0.000000,0.000000,0.000000,0.000000,0.000000,0.000000,0.000000,0.000000,0.000000,0.000000,0.000000,0.000000,0.000000,0.000000,0.000000,0.000000,0.000000,0.000000,0.000000,0.000000,0.000000,0.000000,0.000000,0.000000,0.000000,0.000000,0.000000,0.000000,0,0,0,0,0,0.000000,0,0,0,1,0,0,0.000000,0.000000,0.000000,0.000000,0.000000,0.000000,0,1.001544,0.000000,0.000000,0.000000,0.000000,0.000000,0.000000,-1.594545,1.030935,1.594545,-1.030935,0.004003,0,0
14769,-0.021201,-0.008700,-0.014101,0.999638,0.000000,0.000000,0.000000,0.018000,0.027000,-1.001000,3,11,1,11,37.5418096,127.0795003,34.872,0.746000,1.785000,-0.002000,0.008000,-0.005000,0.133000,1000,1000,1000,1000,1000.000000,0,0,0,0,0,1,0,0,0,3212,0.000000,0,0.000000,0.000000,0.000000,0.000000,0.000000,0.000000,0.000000,0.000000,0.000000,0.000000,0.000000,0.000000,0.000000,0.000000,0.000000,0.000000,0.000000,0.000000,0.000000,0.000000,0.000000,0.000000,0.000000,0.000000,0.000000,0.000000,0.000000,0.000000,0.000000,0.000000,0.000000,9.821614,0.000000,0.000000,0.000000,0.000000,0.000000,0.000000,0.000000,0.000000,0.000000,0.000000,0.000000,0.000000,0.000000,0.000000,0.000000,0.000000,0.000000,0.000000,0.000000,0.000000,0.000000,0.000000,0.000000,0.000000,0.000000,0.000000,0.000000,0.000000,0.000000,0.000000,0.000000,0.000000,0.000000,0,0,0,0,0,0.000000,0,0,0,1,0,0,0.000000,0.000000,0.000000,0.000000,0.000000,0.000000,0,1.001526,0.000000,0.000000,0.000000,0.000000,0.000000,0.000000,-1.594545,1.030935,1.594545,-1.030935,0.000000,0,0
14793,-0.021201,-0.008700,-0.014101,0.999638,0.000000,0.000000,0.000000,0.018000,0.028000,-1.002000,3,11,1,11,37.5418096,127.0795003,34.872,0.746000,1.785000,-0.002000,0.008000,-0.005000,0.133000,1000,1000,1000,1000,1000.000000,0,0,0,0,0,1,0,0,0,3236,0.000000,0,0.000000,0.000000,0.000000,0.000000,0.000000,0.000000,0.000000,0.000000,0.000000,0.000000,0.000000,0.000000,0.000000,0.000000,0.000000,0.000000,0.000000,0.000000,0.000000,0.000000,0.000000,0.000000,0.000000,0.000000,0.000000,0.000000,0.000000,0.000000,0.000000,0.000000,0.000000,9.831684,0.000000,0.000000,0.000000,0.000000,0.000000,0.000000,0.000000,0.000000,0.000000,0.000000,0.000000,0.000000,0.000000,0.000000,0.000000,0.000000,0.000000,0.000000,0.000000,0.000000,0.000000,0.000000,0.000000,0.000000,0.000000,0.000000,0.000000,0.000000,0.000000,0.000000,0.000000,0.000000,0.000000,0,0,0,0,0,0.000000,0,0,0,1,0,0,0.000000,0.000000,0.000000,0.000000,0.000000,0.000000,0,1.002553,0.000000,0.000000,0.000000,0.000000,0.000000,0.000000,-1.594545,1.030935,1.594545,-1.030935,0.000000,0,0
14837,-0.021201,-0.008700,-0.014201,0.999637,0.000000,0.000000,0.000000,0.018000,0.028000,-1.001000,3,11,1,11,37.5418096,127.0795004,34.862,0.742000,1.777000,0.012000,0.002000,-0.003000,0.097000,1000,1000,1000,1000,1000.000000,0,0,0,0,0,1,0,0,0,3280,0.000000,0,0.000000,0.000000,0.000000,0.000000,0.000000,0.000000,0.000000,0.000000,0.000000,0.000000,0.000000,0.000000,0.000000,0.000000,0.000000,0.000000,0.000000,0.000000,0.000000,0.000000,0.000000,0.000000,0.000000,0.000000,0.000000,0.000000,0.000000,0.000000,0.000000,0.000000,0.000000,9.821883,0.000000,0.000000,0.000000,0.000000,0.000000,0.000000,0.000000,0.000000,0.000000,0.000000,0.000000,0.000000,0.000000,0.000000,0.000000,0.000000,0.000000,0.000000,0.000000,0.000000,0.000000,0.000000,0.000000,0.000000,0.000000,0.000000,0.000000,0.000000,0.000000,0.000000,0.000000,0.000000,0.000000,0,0,0,0,0,0.000000,0,0,0,1,0,0,0.000000,0.000000,0.000000,0.000000,0.000000,0.000000,0,1.001553,0.000000,0.000000,0.000000,0.000000,0.000000,0.000000,-1.606002,1.031176,1.606002,-1.031176,-0.005459,0,0
14881,-0.021201,-0.008700,-0.014201,0.999637,0.000000,0.000000,0.000000,0.018000,0.028000,-1.001000,3,11,1,11,37.5418096,127.0795004,34.862,0.742000,1.777000,0.012000,0.002000,-0.003000,0.097000,1000,1000,1000,1000,1000.000000,0,0,0,0,0,1,0,0,0,3324,0.000000,0,0.000000,0.000000,0.000000,0.000000,0.000000,0.000000,0.000000,0.000000,0.000000,0.000000,0.000000,0.000000,0.000000,0.000000,0.000000,0.000000,0.000000,0.000000,0.000000,0.000000,0.000000,0.000000,0.000000,0.000000,0.000000,0.000000,0.000000,0.000000,0.000000,0.000000,0.000000,9.821883,0.000000,0.000000,0.000000,0.000000,0.000000,0.000000,0.000000,0.000000,0.000000,0.000000,0.000000,0.000000,0.000000,0.000000,0.000000,0.000000,0.000000,0.000000,0.000000,0.000000,0.000000,0.000000,0.000000,0.000000,0.000000,0.000000,0.000000,0.000000,0.000000,0.000000,0.000000,0.000000,0.000000,0,0,0,0,0,0.000000,0,0,0,1,0,0,0.000000,0.000000,0.000000,0.000000,0.000000,0.000000,0,1.001553,0.000000,0.000000,0.000000,0.000000,0.000000,0.000000,-1.606002,1.031176,1.606002,-1.031176,0.000000,0,0
14925,-0.021201,-0.008700,-0.014201,0.999637,0.000000,0.000000,0.000000,0.017000,0.027000,-1.001000,3,11,1,11,37.5418096,127.0795004,34.862,0.742000,1.777000,0.012000,0.002000,-0.003000,0.097000,1000,1000,1000,1000,1000.000000,0,0,0,0,0,1,0,0,0,3368,0.000000,0,0.000000,0.000000,0.000000,0.000000,0.000000,0.000000,0.000000,0.000000,0.000000,0.000000,0.000000,0.000000,0.000000,0.000000,0.000000,0.000000,0.000000,0.000000,0.000000,0.000000,0.000000,0.000000,0.000000,0.000000,0.000000,0.000000,0.000000,0.000000,0.000000,0.000000,0.000000,9.821442,0.000000,0.000000,0.000000,0.000000,0.000000,0.000000,0.000000,0.000000,0.000000,0.000000,0.000000,0.000000,0.000000,0.000000,0.000000,0.000000,0.000000,0.000000,0.000000,0.000000,0.000000,0.000000,0.000000,0.000000,0.000000,0.000000,0.000000,0.000000,0.000000,0.000000,0.000000,0.000000,0.000000,0,0,0,0,0,0.000000,0,0,0,1,0,0,0.000000,0.000000,0.000000,0.000000,0.000000,0.000000,0,1.001508,0.000000,0.000000,0.000000,0.000000,0.000000,0.000000,-1.606002,1.031176,1.606002,-1.031176,0.000000,0,0
14949,-0.021201,-0.008700,-0.014101,0.999638,0.000000,0.000000,0.000000,0.016000,0.027000,-1.002000,3,11,1,11,37.5418096,127.0795004,34.865,0.739000,1.769000,-0.009000,0.008000,-0.007000,0.144000,1000,1000,1000,1000,1000.000000,0,0,0,0,0,1,0,0,0,3392,0.000000,0,0.000000,0.000000,0.000000,0.000000,0.000000,0.000000,0.000000,0.000000,0.000000,0.000000,0.000000,0.000000,0.000000,0.000000,0.000000,0.000000,0.000000,0.000000,0.000000,0.000000,0.000000,0.000000,0.000000,0.000000,0.000000,0.000000,0.000000,0.000000,0.000000,0.000000,0.000000,9.831082,0.000000,0.000000,0.000000,0.000000,0.000000,0.000000,0.000000,0.000000,0.000000,0.000000,0.000000,0.000000,0.000000,0.000000,0.000000,0.000000,0.000000,0.000000,0.000000,0.000000,0.000000,0.000000,0.000000,0.000000,0.000000,0.000000,0.000000,0.000000,0.000000,0.000000,0.000000,0.000000,0.000000,0,0,0,0,0,0.000000,0,0,0,1,0,0,0.000000,0.000000,0.000000,0.000000,0.000000,0.000000,0,1.002491,0.000000,0.000000,0.000000,0.000000,0.000000,0.000000,-1.594545,1.030935,1.594545,-1.030935,0.010009,0,0
14993,-0.021201,-0.008700,-0.014101,0.999638,0.000000,0.000000,0.000000,0.019000,0.026000,-1.002000,3,11,1,11,37.5418096,127.0795004,34.865,0.739000,1.769000,-0.009000,0.008000,-0.007000,0.144000,1000,1000,1000,1000,1000.000000,0,0,0,0,0,1,0,0,0,3436,0.000000,0,0.000000,0.000000,0.000000,0.000000,0.000000,0.000000,0.000000,0.000000,0.000000,0.000000,0.000000,0.000000,0.000000,0.000000,0.000000,0.000000,0.000000,0.000000,0.000000,0.000000,0.000000,0.000000,0.000000,0.000000,0.000000,0.000000,0.000000,0.000000,0.000000,0.000000,0.000000,9.831337,0.000000,0.000000,0.000000,0.000000,0.000000,0.000000,0.000000,0.000000,0.000000,0.000000,0.000000,0.000000,0.000000,0.000000,0.000000,0.000000,0.000000,0.000000,0.000000,0.000000,0.000000,0.000000,0.000000,0.000000,0.000000,0.000000,0.000000,0.000000,0.000000,0.000000,0.000000,0.000000,0.000000,0,0,0,0,0,0.000000,0,0,0,1,0,0,0.000000,0.000000,0.000000,0.000000,0.000000,0.000000,0,1.002517,0.000000,0.000000,0.000000,0.000000,0.000000,0.000000,-1.594545,1.030935,1.594545,-1.030935,0.000000,0,0
15068,-0.021201,-0.008700,-0.014101,0.999638,0.000000,0.000000,0.000000,0.017000,0.028000,-1.001000,3,11,1,11,37.5418096,127.0795005,34.858,0.735000,1.760000,0.001000,0.007000,0.002000,0.122000,1000,1000,1000,1000,1000.000000,0,0,0,0,0,1,0,0,0,3510,0.000000,0,0.000000,0.000000,0.000000,0.000000,0.000000,0.000000,0.000000,0.000000,0.000000,0.000000,0.000000,0.000000,0.000000,0.000000,0.000000,0.000000,0.000000,0.000000,0.000000,0.000000,0.000000,0.000000,0.000000,0.000000,0.000000,0.000000,0.000000,0.000000,0.000000,0.000000,0.000000,9.821712,0.000000,0.000000,0.000000,0.000000,0.000000,0.000000,0.000000,0.000000,0.000000,0.000000,0.000000,0.000000,0.000000,0.000000,0.000000,0.000000,0.000000,0.000000,0.000000,0.000000,0.000000,0.000000,0.000000,0.000000,0.000000,0.000000,0.000000,0.000000,0.000000,0.000000,0.000000,0.000000,0.000000,0,0,0,0,0,0.000000,0,0,0,1,0,0,0.000000,0.000000,0.000000,0.000000,0.000000,0.000000,0,1.001536,0.000000,0.000000,0.000000,0.000000,0.000000,0.000000,-1.594545,1.030935,1.594545,-1.030935,0.000000,0,0
15112,-0.021201,-0.008700,-0.014201,0.999637,0.000000,0.000000,0.000000,0.018000,0.027000,-0.999000,3,11,1,11,37.5418096,127.0795005,34.858,0.735000,1.760000,0.001000,0.007000,0.002000,0.122000,1000,1000,1000,1000,1000.000000,0,0,0,0,0,1,0,0,0,3555,0.000000,0,0.000000,0.000000,0.000000,0.000000,0.000000,0.000000,0.000000,0.000000,0.000000,0.000000,0.000000,0.000000,0.000000,0.000000,0.000000,0.000000,0.000000,0.000000,0.000000,0.000000,0.000000,0.000000,0.000000,0.000000,0.000000,0.000000,0.000000,0.000000,0.000000,0.000000,0.000000,9.802011,0.000000,0.000000,0.000000,0.000000,0.000000,0.000000,0.000000,0.000000,0.000000,0.000000,0.000000,0.000000,0.000000,0.000000,0.000000,0.000000,0.000000,0.000000,0.000000,0.000000,0.000000,0.000000,0.000000,0.000000,0.000000,0.000000,0.000000,0.000000,0.000000,0.000000,0.000000,0.000000,0.000000,0,0,0,0,0,0.000000,0,0,0,1,0,0,0.000000,0.000000,0.000000,0.000000,0.000000,0.000000,0,0.999527,0.000000,0.000000,0.000000,0.000000,0.000000,0.000000,-1.606002,1.031176,1.606002,-1.031176,-0.005459,0,0
15160,-0.021201,-0.008700,-0.014201,0.999637,0.000000,0.000000,0.000000,0.015000,0.027000,-1.002000,3,11,1,11,37.5418096,127.0795005,34.858,0.735000,1.760000,0.001000,0.007000,0.002000,0.122000,1000,1000,1000,1000,1000.000000,0,0,0,0,0,1,0,0,0,3602,0.000000,0,0.000000,0.000000,0.000000,0.000000,0.000000,0.000000,0.000000,0.000000,0.000000,0.000000,0.000000,0.000000,0.000000,0.000000,0.000000,0.000000,0.000000,0.000000,0.000000,0.000000,0.000000,0.000000,0.000000,0.000000,0.000000,0.000000,0.000000,0.000000,0.000000,0.000000,0.000000,9.830932,0.000000,0.000000,0.000000,0.000000,0.000000,0.000000,0.000000,0.000000,0.000000,0.000000,0.000000,0.000000,0.000000,0.000000,0.000000,0.000000,0.000000,0.000000,0.000000,0.000000,0.000000,0.000000,0.000000,0.000000,0.000000,0.000000,0.000000,0.000000,0.000000,0.000000,0.000000,0.000000,0.000000,0,0,0,0,0,0.000000,0,0,0,1,0,0,0.000000,0.000000,0.000000,0.000000,0.000000,0.000000,0,1.002476,0.000000,0.000000,0.000000,0.000000,0.000000,0.000000,-1.606002,1.031176,1.606002,-1.031176,0.000000,0,0
15210,-0.021201,-0.008700,-0.014201,0.999637,0.000000,0.000000,0.000000,0.018000,0.028000,-1.001000,3,11,1,11,37.5418095,127.0795005,34.863,0.732000,1.753000,-0.005000,-0.002000,-0.013000,0.156000,1000,1000,1000,1000,1000.000000,0,0,0,0,0,1,0,0,0,3652,0.000000,0,0.000000,0.000000,0.000000,0.000000,0.000000,0.000000,0.000000,0.000000,0.000000,0.000000,0.000000,0.000000,0.000000,0.000000,0.000000,0.000000,0.000000,0.000000,0.000000,0.000000,0.000000,0.000000,0.000000,0.000000,0.000000,0.000000,0.000000,0.000000,0.000000,0.000000,0.000000,9.821883,0.000000,0.000000,0.000000,0.000000,0.000000,0.000000,0.000000,0.000000,0.000000,0.000000,0.000000,0.000000,0.000000,0.000000,0.000000,0.000000,0.000000,0.000000,0.000000,0.000000,0.000000,0.000000,0.000000,0.000000,0.000000,0.000000,0.000000,0.000000,0.000000,0.000000,0.000000,0.000000,0.000000,0,0,0,0,0,0.000000,0,0,0,1,0,0,0.000000,0.000000,0.000000,0.000000,0.000000,0.000000,0,1.001553,0.000000,0.000000,0.000000,0.000000,0.000000,0.000000,-1.606002,1.031176,1.606002,-1.031176,0.000000,0,0
15233,-0.021201,-0.008700,-0.014201,0.999637,0.000000,0.000000,0.000000,0.017000,0.026000,-1.001000,3,11,1,11,37.5418095,127.0795005,34.863,0.732000,1.753000,-0.005000,-0.002000,-0.013000,0.156000,1000,1000,1000,1000,1000.000000,0,0,0,0,0,1,0,0,0,3676,0.000000,0,0.000000,0.000000,0.000000,0.000000,0.000000,0.000000,0.000000,0.000000,0.000000,0.000000,0.000000,0.000000,0.000000,0.000000,0.000000,0.000000,0.000000,0.000000,0.000000,0.000000,0.000000,0.000000,0.000000,0.000000,0.000000,0.000000,0.000000,0.000000,0.000000,0.000000,0.000000,9.821182,0.000000,0.000000,0.000000,0.000000,0.000000,0.000000,0.000000,0.000000,0.000000,0.000000,0.000000,0.000000,0.000000,0.000000,0.000000,0.000000,0.000000,0.000000,0.000000,0.000000,0.000000,0.000000,0.000000,0.000000,0.000000,0.000000,0.000000,0.000000,0.000000,0.000000,0.000000,0.000000,0.000000,0,0,0,0,0,0.000000,0,0,0,1,0,0,0.000000,0.000000,0.000000,0.000000,0.000000,0.000000,0,1.001482,0.000000,0.000000,0.000000,0.000000,0.000000,0.000000,-1.606002,1.031176,1.606002,-1.031176,0.000000,0,0
15281,-0.021201,-0.008700,-0.014201,0.999637,0.000000,0.000000,0.000000,0.017000,0.028000,-1.002000,3,11,1,11,37.5418095,127.0795005,34.863,0.732000,1.753000,-0.005000,-0.002000,-0.013000,0.156000,1000,1000,1000,1000,1000.000000,0,0,0,0,0,1,0,0,0,3724,0.000000,0,0.000000,0.000000,0.000000,0.000000,0.000000,0.000000,0.000000,0.000000,0.000000,0.000000,0.000000,0.000000,0.000000,0.000000,0.000000,0.000000,0.000000,0.000000,0.000000,0.000000,0.000000,0.000000,0.000000,0.000000,0.000000,0.000000,0.000000,0.000000,0.000000,0.000000,0.000000,9.831513,0.000000,0.000000,0.000000,0.000000,0.000000,0.000000,0.000000,0.000000,0.000000,0.000000,0.000000,0.000000,0.000000,0.000000,0.000000,0.000000,0.000000,0.000000,0.000000,0.000000,0.000000,0.000000,0.000000,0.000000,0.000000,0.000000,0.000000,0.000000,0.000000,0.000000,0.000000,0.000000,0.000000,0,0,0,0,0,0.000000,0,0,0,1,0,0,0.000000,0.000000,0.000000,0.000000,0.000000,0.000000,0,1.002535,0.000000,0.000000,0.000000,0.000000,0.000000,0.000000,-1.606002,1.031176,1.606002,-1.031176,0.000000,0,0
15325,-0.021201,-0.008700,-0.014201,0.999637,0.000000,0.000000,0.000000,0.016000,0.028000,-1.001000,3,11,1,11,37.5418095,127.0795005,34.847,0.728000,1.745000,0.003000,0.012000,-0.001000,0.127000,1000,1000,1000,1000,1000.000000,0,0,0,0,0,1,0,0,0,3768,0.000000,0,0.000000,0.000000,0.000000,0.000000,0.000000,0.000000,0.000000,0.000000,0.000000,0.000000,0.000000,0.000000,0.000000,0.000000,0.000000,0.000000,0.000000,0.000000,0.000000,0.000000,0.000000,0.000000,0.000000,0.000000,0.000000,0.000000,0.000000,0.000000,0.000000,0.000000,0.000000,9.821549,0.000000,0.000000,0.000000,0.000000,0.000000,0.000000,0.000000,0.000000,0.000000,0.000000,0.000000,0.000000,0.000000,0.000000,0.000000,0.000000,0.000000,0.000000,0.000000,0.000000,0.000000,0.000000,0.000000,0.000000,0.000000,0.000000,0.000000,0.000000,0.000000,0.000000,0.000000,0.000000,0.000000,0,0,0,0,0,0.000000,0,0,0,1,0,0,0.000000,0.000000,0.000000,0.000000,0.000000,0.000000,0,1.001519,0.000000,0.000000,0.000000,0.000000,0.000000,0.000000,-1.606002,1.031176,1.606002,-1.031176,0.000000,0,0
15395,-0.021201,-0.008700,-0.014201,0.999637,0.000000,0.000000,0.000000,0.017000,0.028000,-1.003000,3,11,1,11,37.5418095,127.0795005,34.847,0.728000,1.745000,0.003000,0.012000,-0.001000,0.127000,1000,1000,1000,1000,1000.000000,0,0,0,0,0,1,0,0,0,3838,0.000000,0,0.000000,0.000000,0.000000,0.000000,0.000000,0.000000,0.000000,0.000000,0.000000,0.000000,0.000000,0.000000,0.000000,0.000000,0.000000,0.000000,0.000000,0.000000,0.000000,0.000000,0.000000,0.000000,0.000000,0.000000,0.000000,0.000000,0.000000,0.000000,0.000000,0.000000,0.000000,9.841314,0.000000,0.000000,0.000000,0.000000,0.000000,0.000000,0.000000,0.000000,0.000000,0.000000,0.000000,0.000000,0.000000,0.000000,0.000000,0.000000,0.000000,0.000000,0.000000,0.000000,0.000000,0.000000,0.000000,0.000000,0.000000,0.000000,0.000000,0.000000,0.000000,0.000000,0.000000,0.000000,0.000000,0,0,0,0,0,0.000000,0,0,0,1,0,0,0.000000,0.000000,0.000000,0.000000,0.000000,0.000000,0,1.003535,0.000000,0.000000,0.000000,0.000000,0.000000,0.000000,-1.606002,1.031176,1.606002,-1.031176,0.000000,0,0
15439,-0.021201,-0.008700,-0.014101,0.999638,0.000000,0.000000,0.000000,0.017000,0.027000,-1.002000,3,11,1,11,37.5418095,127.0795005,34.857,0.725000,1.738000,0.001000,0.002000,-0.010000,0.110000,1000,1000,1000,1000,1000.000000,0,0,0,0,0,1,0,0,0,3882,0.000000,0,0.000000,0.000000,0.000000,0.000000,0.000000,0.000000,0.000000,0.000000,0.000000,0.000000,0.000000,0.000000,0.000000,0.000000,0.000000,0.000000,0.000000,0.000000,0.000000,0.000000,0.000000,0.000000,0.000000,0.000000,0.000000,0.000000,0.000000,0.000000,0.000000,0.000000,0.000000,9.831244,0.000000,0.000000,0.000000,0.000000,0.000000,0.000000,0.000000,0.000000,0.000000,0.000000,0.000000,0.000000,0.000000,0.000000,0.000000,0.000000,0.000000,0.000000,0.000000,0.000000,0.000000,0.000000,0.000000,0.000000,0.000000,0.000000,0.000000,0.000000,0.000000,0.000000,0.000000,0.000000,0.000000,0,0,0,0,0,0.000000,0,0,0,1,0,0,0.000000,0.000000,0.000000,0.000000,0.000000,0.000000,0,1.002508,0.000000,0.000000,0.000000,0.000000,0.000000,0.000000,-1.594545,1.030935,1.594545,-1.030935,0.005459,0,0
15483,-0.021201,-0.008700,-0.014101,0.999638,0.000000,0.000000,0.000000,0.017000,0.026000,-1.002000,3,11,1,11,37.5418095,127.0795005,34.857,0.725000,1.738000,0.001000,0.002000,-0.010000,0.110000,1000,1000,1000,1000,1000.000000,0,0,0,0,0,1,0,0,0,3926,0.000000,0,0.000000,0.000000,0.000000,0.000000,0.000000,0.000000,0.000000,0.000000,0.000000,0.000000,0.000000,0.000000,0.000000,0.000000,0.000000,0.000000,0.000000,0.000000,0.000000,0.000000,0.000000,0.000000,0.000000,0.000000,0.000000,0.000000,0.000000,0.000000,0.000000,0.000000,0.000000,9.830985,0.000000,0.000000,0.000000,0.000000,0.000000,0.000000,0.000000,0.000000,0.000000,0.000000,0.000000,0.000000,0.000000,0.000000,0.000000,0.000000,0.000000,0.000000,0.000000,0.000000,0.000000,0.000000,0.000000,0.000000,0.000000,0.000000,0.000000,0.000000,0.000000,0.000000,0.000000,0.000000,0.000000,0,0,0,0,0,0.000000,0,0,0,1,0,0,0.000000,0.000000,0.000000,0.000000,0.000000,0.000000,0,1.002481,0.000000,0.000000,0.000000,0.000000,0.000000,0.000000,-1.594545,1.030935,1.594545,-1.030935,0.000000,0,0
15529,-0.021201,-0.008700,-0.014101,0.999638,0.000000,0.000000,0.000000,0.018000,0.027000,-1.002000,3,11,1,11,37.5418095,127.0795005,34.857,0.725000,1.738000,0.001000,0.002000,-0.010000,0.110000,1000,1000,1000,1000,1000.000000,0,0,0,0,0,1,0,0,0,3972,0.000000,0,0.000000,0.000000,0.000000,0.000000,0.000000,0.000000,0.000000,0.000000,0.000000,0.000000,0.000000,0.000000,0.000000,0.000000,0.000000,0.000000,0.000000,0.000000,0.000000,0.000000,0.000000,0.000000,0.000000,0.000000,0.000000,0.000000,0.000000,0.000000,0.000000,0.000000,0.000000,9.831415,0.000000,0.000000,0.000000,0.000000,0.000000,0.000000,0.000000,0.000000,0.000000,0.000000,0.000000,0.000000,0.000000,0.000000,0.000000,0.000000,0.000000,0.000000,0.000000,0.000000,0.000000,0.000000,0.000000,0.000000,0.000000,0.000000,0.000000,0.000000,0.000000,0.000000,0.000000,0.000000,0.000000,0,0,0,0,0,0.000000,0,0,0,1,0,0,0.000000,0.000000,0.000000,0.000000,0.000000,0.000000,0,1.002525,0.000000,0.000000,0.000000,0.000000,0.000000,0.000000,-1.594545,1.030935,1.594545,-1.030935,0.000000,0,0
15573,-0.021201,-0.008700,-0.014101,0.999638,0.000000,0.000000,0.000000,0.018000,0.027000,-1.002000,3,11,1,11,37.5418095,127.0795005,34.843,0.722000,1.731000,-0.004000,0.001000,-0.006000,0.143000,1000,1000,1000,1000,1000.000000,0,0,0,0,0,1,0,0,0,4016,0.000000,0,0.000000,0.000000,0.000000,0.000000,0.000000,0.000000,0.000000,0.000000,0.000000,0.000000,0.000000,0.000000,0.000000,0.000000,0.000000,0.000000,0.000000,0.000000,0.000000,0.000000,0.000000,0.000000,0.000000,0.000000,0.000000,0.000000,0.000000,0.000000,0.000000,0.000000,0.000000,9.831415,0.000000,0.000000,0.000000,0.000000,0.000000,0.000000,0.000000,0.000000,0.000000,0.000000,0.000000,0.000000,0.000000,0.000000,0.000000,0.000000,0.000000,0.000000,0.000000,0.000000,0.000000,0.000000,0.000000,0.000000,0.000000,0.000000,0.000000,0.000000,0.000000,0.000000,0.000000,0.000000,0.000000,0,0,0,0,0,0.000000,0,0,0,1,0,0,0.000000,0.000000,0.000000,0.000000,0.000000,0.000000,0,1.002525,0.000000,0.000000,0.000000,0.000000,0.000000,0.000000,-1.594545,1.030935,1.594545,-1.030935,0.000000,0,0
15597,-0.021201,-0.008700,-0.014101,0.999638,0.000000,0.000000,0.000000,0.018000,0.029000,-1.002000,3,11,1,11,37.5418095,127.0795005,34.843,0.722000,1.731000,-0.004000,0.001000,-0.006000,0.143000,1000,1000,1000,1000,1000.000000,0,0,0,0,0,1,0,0,0,4040,0.000000,0,0.000000,0.000000,0.000000,0.000000,0.000000,0.000000,0.000000,0.000000,0.000000,0.000000,0.000000,0.000000,0.000000,0.000000,0.000000,0.000000,0.000000,0.000000,0.000000,0.000000,0.000000,0.000000,0.000000,0.000000,0.000000,0.000000,0.000000,0.000000,0.000000,0.000000,0.000000,9.831964,0.000000,0.000000,0.000000,0.000000,0.000000,0.000000,0.000000,0.000000,0.000000,0.000000,0.000000,0.000000,0.000000,0.000000,0.000000,0.000000,0.000000,0.000000,0.000000,0.000000,0.000000,0.000000,0.000000,0.000000,0.000000,0.000000,0.000000,0.000000,0.000000,0.000000,0.000000,0.000000,0.000000,0,0,0,0,0,0.000000,0,0,0,1,0,0,0.000000,0.000000,0.000000,0.000000,0.000000,0.000000,0,1.002581,0.000000,0.000000,0.000000,0.000000,0.000000,0.000000,-1.594545,1.030935,1.594545,-1.030935,0.000000,0,0
15642,-0.021201,-0.008700,-0.014101,0.999638,0.000000,0.000000,0.000000,0.019000,0.028000,-1.000000,3,11,1,11,37.5418095,127.0795005,34.843,0.722000,1.731000,-0.004000,0.001000,-0.006000,0.143000,1000,1000,1000,1000,1000.000000,0,0,0,0,0,1,0,0,0,4085,0.000000,0,0.000000,0.000000,0.000000,0.000000,0.000000,0.000000,0.000000,0.000000,0.000000,0.000000,0.000000,0.000000,0.000000,0.000000,0.000000,0.000000,0.000000,0.000000,0.000000,0.000000,0.000000,0.000000,0.000000,0.000000,0.000000,0.000000,0.000000,0.000000,0.000000,0.000000,0.000000,9.812263,0.000000,0.000000,0.000000,0.000000,0.000000,0.000000,0.000000,0.000000,0.000000,0.000000,0.000000,0.000000,0.000000,0.000000,0.000000,0.000000,0.000000,0.000000,0.000000,0.000000,0.000000,0.000000,0.000000,0.000000,0.000000,0.000000,0.000000,0.000000,0.000000,0.000000,0.000000,0.000000,0.000000,0,0,0,0,0,0.000000,0,0,0,1,0,0,0.000000,0.000000,0.000000,0.000000,0.000000,0.000000,0,1.000572,0.000000,0.000000,0.000000,0.000000,0.000000,0.000000,-1.594545,1.030935,1.594545,-1.030935,0.000000,0,0
15710,-0.021201,-0.008700,-0.014101,0.999638,0.000000,0.000000,0.000000,0.017000,0.027000,-1.003000,3,11,1,11,37.5418094,127.0795005,34.848,0.719000,1.724000,-0.011000,0.001000,-0.017000,0.161000,1000,1000,1000,1000,1000.000000,0,0,0,0,0,1,0,0,0,4153,0.000000,0,0.000000,0.000000,0.000000,0.000000,0.000000,0.000000,0.000000,0.000000,0.000000,0.000000,0.000000,0.000000,0.000000,0.000000,0.000000,0.000000,0.000000,0.000000,0.000000,0.000000,0.000000,0.000000,0.000000,0.000000,0.000000,0.000000,0.000000,0.000000,0.000000,0.000000,0.000000,9.841045,0.000000,0.000000,0.000000,0.000000,0.000000,0.000000,0.000000,0.000000,0.000000,0.000000,0.000000,0.000000,0.000000,0.000000,0.000000,0.000000,0.000000,0.000000,0.000000,0.000000,0.000000,0.000000,0.000000,0.000000,0.000000,0.000000,0.000000,0.000000,0.000000,0.000000,0.000000,0.000000,0.000000,0,0,0,0,0,0.000000,0,0,0,1,0,0,0.000000,0.000000,0.000000,0.000000,0.000000,0.000000,0,1.003507,0.000000,0.000000,0.000000,0.000000,0.000000,0.000000,-1.594545,1.030935,1.594545,-1.030935,0.000000,0,0
15734,-0.021201,-0.008700,-0.014101,0.999638,0.000000,0.000000,0.000000,0.016000,0.028000,-0.999000,3,11,1,11,37.5418094,127.0795005,34.848,0.719000,1.724000,-0.011000,0.001000,-0.017000,0.161000,1000,1000,1000,1000,1000.000000,0,0,0,0,0,1,0,0,0,4177,0.000000,0,0.000000,0.000000,0.000000,0.000000,0.000000,0.000000,0.000000,0.000000,0.000000,0.000000,0.000000,0.000000,0.000000,0.000000,0.000000,0.000000,0.000000,0.000000,0.000000,0.000000,0.000000,0.000000,0.000000,0.000000,0.000000,0.000000,0.000000,0.000000,0.000000,0.000000,0.000000,9.801947,0.000000,0.000000,0.000000,0.000000,0.000000,0.000000,0.000000,0.000000,0.000000,0.000000,0.000000,0.000000,0.000000,0.000000,0.000000,0.000000,0.000000,0.000000,0.000000,0.000000,0.000000,0.000000,0.000000,0.000000,0.000000,0.000000,0.000000,0.000000,0.000000,0.000000,0.000000,0.000000,0.000000,0,0,0,0,0,0.000000,0,0,0,1,0,0,0.000000,0.000000,0.000000,0.000000,0.000000,0.000000,0,0.999520,0.000000,0.000000,0.000000,0.000000,0.000000,0.000000,-1.594545,1.030935,1.594545,-1.030935,0.000000,0,0
15797,-0.021201,-0.008700,-0.014101,0.999638,0.000000,0.000000,0.000000,0.019000,0.027000,-1.002000,3,11,1,11,37.5418094,127.0795005,34.848,0.719000,1.724000,-0.011000,0.001000,-0.017000,0.161000,1000,1000,1000,1000,1000.000000,0,0,0,0,0,1,0,0,0,4240,0.000000,0,0.000000,0.000000,0.000000,0.000000,0.000000,0.000000,0.000000,0.000000,0.000000,0.000000,0.000000,0.000000,0.000000,0.000000,0.000000,0.000000,0.000000,0.000000,0.000000,0.000000,0.000000,0.000000,0.000000,0.000000,0.000000,0.000000,0.000000,0.000000,0.000000,0.000000,0.000000,9.831596,0.000000,0.000000,0.000000,0.000000,0.000000,0.000000,0.000000,0.000000,0.000000,0.000000,0.000000,0.000000,0.000000,0.000000,0.000000,0.000000,0.000000,0.000000,0.000000,0.000000,0.000000,0.000000,0.000000,0.000000,0.000000,0.000000,0.000000,0.000000,0.000000,0.000000,0.000000,0.000000,0.000000,0,0,0,0,0,0.000000,0,0,0,1,0,0,0.000000,0.000000,0.000000,0.000000,0.000000,0.000000,0,1.002544,0.000000,0.000000,0.000000,0.000000,0.000000,0.000000,-1.594545,1.030935,1.594545,-1.030935,0.000000,0,0
15841,-0.021201,-0.008700,-0.014101,0.999638,0.000000,0.000000,0.000000,0.019000,0.026000,-1.001000,3,11,1,11,37.5418093,127.0795005,34.851,0.715000,1.716000,-0.003000,0.005000,-0.017000,0.161000,1000,1000,1000,1000,1000.000000,0,0,0,0,0,1,0,0,0,4284,0.000000,0,0.000000,0.000000,0.000000,0.000000,0.000000,0.000000,0.000000,0.000000,0.000000,0.000000,0.000000,0.000000,0.000000,0.000000,0.000000,0.000000,0.000000,0.000000,0.000000,0.000000,0.000000,0.000000,0.000000,0.000000,0.000000,0.000000,0.000000,0.000000,0.000000,0.000000,0.000000,9.821536,0.000000,0.000000,0.000000,0.000000,0.000000,0.000000,0.000000,0.000000,0.000000,0.000000,0.000000,0.000000,0.000000,0.000000,0.000000,0.000000,0.000000,0.000000,0.000000,0.000000,0.000000,0.000000,0.000000,0.000000,0.000000,0.000000,0.000000,0.000000,0.000000,0.000000,0.000000,0.000000,0.000000,0,0,0,0,0,0.000000,0,0,0,1,0,0,0.000000,0.000000,0.000000,0.000000,0.000000,0.000000,0,1.001518,0.000000,0.000000,0.000000,0.000000,0.000000,0.000000,-1.594545,1.030935,1.594545,-1.030935,0.000000,0,0
15885,-0.021201,-0.008700,-0.014101,0.999638,0.000000,0.000000,0.000000,0.018000,0.027000,-1.001000,3,11,1,11,37.5418093,127.0795005,34.851,0.715000,1.716000,-0.003000,0.005000,-0.017000,0.161000,1000,1000,1000,1000,1000.000000,0,0,0,0,0,1,0,0,0,4328,0.000000,0,0.000000,0.000000,0.000000,0.000000,0.000000,0.000000,0.000000,0.000000,0.000000,0.000000,0.000000,0.000000,0.000000,0.000000,0.000000,0.000000,0.000000,0.000000,0.000000,0.000000,0.000000,0.000000,0.000000,0.000000,0.000000,0.000000,0.000000,0.000000,0.000000,0.000000,0.000000,9.821614,0.000000,0.000000,0.000000,0.000000,0.000000,0.000000,0.000000,0.000000,0.000000,0.000000,0.000000,0.000000,0.000000,0.000000,0.000000,0.000000,0.000000,0.000000,0.000000,0.000000,0.000000,0.000000,0.000000,0.000000,0.000000,0.000000,0.000000,0.000000,0.000000,0.000000,0.000000,0.000000,0.000000,0,0,0,0,0,0.000000,0,0,0,1,0,0,0.000000,0.000000,0.000000,0.000000,0.000000,0.000000,0,1.001526,0.000000,0.000000,0.000000,0.000000,0.000000,0.000000,-1.594545,1.030935,1.594545,-1.030935,0.000000,0,0
15929,-0.021201,-0.008700,-0.014101,0.999638,0.000000,0.000000,0.000000,0.018000,0.026000,-1.000000,3,11,1,11,37.5418093,127.0795005,34.851,0.715000,1.716000,-0.003000,0.005000,-0.017000,0.161000,1000,1000,1000,1000,1000.000000,0,0,0,0,0,1,0,0,0,4372,0.000000,0,0.000000,0.000000,0.000000,0.000000,0.000000,0.000000,0.000000,0.000000,0.000000,0.000000,0.000000,0.000000,0.000000,0.000000,0.000000,0.000000,0.000000,0.000000,0.000000,0.000000,0.000000,0.000000,0.000000,0.000000,0.000000,0.000000,0.000000,0.000000,0.000000,0.000000,0.000000,9.811552,0.000000,0.000000,0.000000,0.000000,0.000000,0.000000,0.000000,0.000000,0.000000,0.000000,0.000000,0.000000,0.000000,0.000000,0.000000,0.000000,0.000000,0.000000,0.000000,0.000000,0.000000,0.000000,0.000000,0.000000,0.000000,0.000000,0.000000,0.000000,0.000000,0.000000,0.000000,0.000000,0.000000,0,0,0,0,0,0.000000,0,0,0,1,0,0,0.000000,0.000000,0.000000,0.000000,0.000000,0.000000,0,1.000500,0.000000,0.000000,0.000000,0.000000,0.000000,0.000000,-1.594545,1.030935,1.594545,-1.030935,0.000000,0,0
15973,-0.021201,-0.008700,-0.014101,0.999638,0.000000,0.000000,0.000000,0.017000,0.028000,-1.001000,3,11,1,11,37.5418092,127.0795005,34.872,0.712000,1.709000,0.000000,-0.022000,-0.017000,0.129000,1000,1000,1000,1000,1000.000000,0,0,0,0,0,1,0,0,0,4416,0.000000,0,0.000000,0.000000,0.000000,0.000000,0.000000,0.000000,0.000000,0.000000,0.000000,0.000000,0.000000,0.000000,0.000000,0.000000,0.000000,0.000000,0.000000,0.000000,0.000000,0.000000,0.000000,0.000000,0.000000,0.000000,0.000000,0.000000,0.000000,0.000000,0.000000,0.000000,0.000000,9.821712,0.000000,0.000000,0.000000,0.000000,0.000000,0.000000,0.000000,0.000000,0.000000,0.000000,0.000000,0.000000,0.000000,0.000000,0.000000,0.000000,0.000000,0.000000,0.000000,0.000000,0.000000,0.000000,0.000000,0.000000,0.000000,0.000000,0.000000,0.000000,0.000000,0.000000,0.000000,0.000000,0.000000,0,0,0,0,0,0.000000,0,0,0,1,0,0,0.000000,0.000000,0.000000,0.000000,0.000000,0.000000,0,1.001536,0.000000,0.000000,0.000000,0.000000,0.000000,0.000000,-1.594545,1.030935,1.594545,-1.030935,0.000000,0,0
15997,-0.021201,-0.008700,-0.014101,0.999638,0.000000,0.000000,0.000000,0.016000,0.027000,-1.001000,3,11,1,11,37.5418092,127.0795005,34.872,0.712000,1.709000,0.000000,-0.022000,-0.017000,0.129000,1000,1000,1000,1000,1000.000000,0,0,0,0,0,1,0,0,0,4440,0.000000,0,0.000000,0.000000,0.000000,0.000000,0.000000,0.000000,0.000000,0.000000,0.000000,0.000000,0.000000,0.000000,0.000000,0.000000,0.000000,0.000000,0.000000,0.000000,0.000000,0.000000,0.000000,0.000000,0.000000,0.000000,0.000000,0.000000,0.000000,0.000000,0.000000,0.000000,0.000000,9.821280,0.000000,0.000000,0.000000,0.000000,0.000000,0.000000,0.000000,0.000000,0.000000,0.000000,0.000000,0.000000,0.000000,0.000000,0.000000,0.000000,0.000000,0.000000,0.000000,0.000000,0.000000,0.000000,0.000000,0.000000,0.000000,0.000000,0.000000,0.000000,0.000000,0.000000,0.000000,0.000000,0.000000,0,0,0,0,0,0.000000,0,0,0,1,0,0,0.000000,0.000000,0.000000,0.000000,0.000000,0.000000,0,1.001492,0.000000,0.000000,0.000000,0.000000,0.000000,0.000000,-1.594545,1.030935,1.594545,-1.030935,0.000000,0,0
16041,-0.021201,-0.008700,-0.014101,0.999638,0.000000,0.000000,0.000000,0.016000,0.029000,-1.001000,3,11,1,11,37.5418092,127.0795005,34.872,0.712000,1.709000,0.000000,-0.022000,-0.017000,0.129000,1000,1000,1000,1000,1000.000000,0,0,0,0,0,1,0,0,0,4484,0.000000,0,0.000000,0.000000,0.000000,0.000000,0.000000,0.000000,0.000000,0.000000,0.000000,0.000000,0.000000,0.000000,0.000000,0.000000,0.000000,0.000000,0.000000,0.000000,0.000000,0.000000,0.000000,0.000000,0.000000,0.000000,0.000000,0.000000,0.000000,0.000000,0.000000,0.000000,0.000000,9.821829,0.000000,0.000000,0.000000,0.000000,0.000000,0.000000,0.000000,0.000000,0.000000,0.000000,0.000000,0.000000,0.000000,0.000000,0.000000,0.000000,0.000000,0.000000,0.000000,0.000000,0.000000,0.000000,0.000000,0.000000,0.000000,0.000000,0.000000,0.000000,0.000000,0.000000,0.000000,0.000000,0.000000,0,0,0,0,0,0.000000,0,0,0,1,0,0,0.000000,0.000000,0.000000,0.000000,0.000000,0.000000,0,1.001548,0.000000,0.000000,0.000000,0.000000,0.000000,0.000000,-1.594545,1.030935,1.594545,-1.030935,0.000000,0,0
16085,-0.021201,-0.008700,-0.014101,0.999638,0.000000,0.000000,0.000000,0.018000,0.027000,-0.999000,3,11,1,11,37.5418091,127.0795005,34.874,0.709000,1.702000,-0.020000,0.022000,-0.022000,0.149000,1000,1000,1000,1000,1000.000000,0,0,0,0,0,1,0,0,0,4528,0.000000,0,0.000000,0.000000,0.000000,0.000000,0.000000,0.000000,0.000000,0.000000,0.000000,0.000000,0.000000,0.000000,0.000000,0.000000,0.000000,0.000000,0.000000,0.000000,0.000000,0.000000,0.000000,0.000000,0.000000,0.000000,0.000000,0.000000,0.000000,0.000000,0.000000,0.000000,0.000000,9.802011,0.000000,0.000000,0.000000,0.000000,0.000000,0.000000,0.000000,0.000000,0.000000,0.000000,0.000000,0.000000,0.000000,0.000000,0.000000,0.000000,0.000000,0.000000,0.000000,0.000000,0.000000,0.000000,0.000000,0.000000,0.000000,0.000000,0.000000,0.000000,0.000000,0.000000,0.000000,0.000000,0.000000,0,0,0,0,0,0.000000,0,0,0,1,0,0,0.000000,0.000000,0.000000,0.000000,0.000000,0.000000,0,0.999527,0.000000,0.000000,0.000000,0.000000,0.000000,0.000000,-1.594545,1.030935,1.594545,-1.030935,0.000000,0,0
16150,-0.021201,-0.008700,-0.014101,0.999638,0.000000,0.000000,0.000000,0.018000,0.027000,-1.000000,3,11,1,11,37.5418091,127.0795005,34.874,0.709000,1.702000,-0.020000,0.022000,-0.022000,0.149000,1000,1000,1000,1000,1000.000000,0,0,0,0,0,1,0,0,0,4593,0.000000,0,0.000000,0.000000,0.000000,0.000000,0.000000,0.000000,0.000000,0.000000,0.000000,0.000000,0.000000,0.000000,0.000000,0.000000,0.000000,0.000000,0.000000,0.000000,0.000000,0.000000,0.000000,0.000000,0.000000,0.000000,0.000000,0.000000,0.000000,0.000000,0.000000,0.000000,0.000000,9.811811,0.000000,0.000000,0.000000,0.000000,0.000000,0.000000,0.000000,0.000000,0.000000,0.000000,0.000000,0.000000,0.000000,0.000000,0.000000,0.000000,0.000000,0.000000,0.000000,0.000000,0.000000,0.000000,0.000000,0.000000,0.000000,0.000000,0.000000,0.000000,0.000000,0.000000,0.000000,0.000000,0.000000,0,0,0,0,0,0.000000,0,0,0,1,0,0,0.000000,0.000000,0.000000,0.000000,0.000000,0.000000,0,1.000526,0.000000,0.000000,0.000000,0.000000,0.000000,0.000000,-1.594545,1.030935,1.594545,-1.030935,0.000000,0,0
16174,-0.021201,-0.008700,-0.014101,0.999638,0.000000,0.000000,0.000000,0.018000,0.026000,-1.002000,3,11,1,11,37.5418091,127.0795005,34.874,0.709000,1.702000,-0.020000,0.022000,-0.022000,0.149000,1000,1000,1000,1000,1000.000000,0,0,0,0,0,1,0,0,0,4617,0.000000,0,0.000000,0.000000,0.000000,0.000000,0.000000,0.000000,0.000000,0.000000,0.000000,0.000000,0.000000,0.000000,0.000000,0.000000,0.000000,0.000000,0.000000,0.000000,0.000000,0.000000,0.000000,0.000000,0.000000,0.000000,0.000000,0.000000,0.000000,0.000000,0.000000,0.000000,0.000000,9.831156,0.000000,0.000000,0.000000,0.000000,0.000000,0.000000,0.000000,0.000000,0.000000,0.000000,0.000000,0.000000,0.000000,0.000000,0.000000,0.000000,0.000000,0.000000,0.000000,0.000000,0.000000,0.000000,0.000000,0.000000,0.000000,0.000000,0.000000,0.000000,0.000000,0.000000,0.000000,0.000000,0.000000,0,0,0,0,0,0.000000,0,0,0,1,0,0,0.000000,0.000000,0.000000,0.000000,0.000000,0.000000,0,1.002499,0.000000,0.000000,0.000000,0.000000,0.000000,0.000000,-1.594545,1.030935,1.594545,-1.030935,0.000000,0,0
16201,-0.021201,-0.008700,-0.014101,0.999638,0.000000,0.000000,0.000000,0.017000,0.027000,-1.001000,3,11,1,11,37.5418091,127.0795005,34.888,0.705000,1.695000,0.011000,-0.015000,-0.017000,0.113000,1000,1000,1000,1000,1000.000000,0,0,0,0,0,1,0,0,0,4644,0.000000,0,0.000000,0.000000,0.000000,0.000000,0.000000,0.000000,0.000000,0.000000,0.000000,0.000000,0.000000,0.000000,0.000000,0.000000,0.000000,0.000000,0.000000,0.000000,0.000000,0.000000,0.000000,0.000000,0.000000,0.000000,0.000000,0.000000,0.000000,0.000000,0.000000,0.000000,0.000000,9.821442,0.000000,0.000000,0.000000,0.000000,0.000000,0.000000,0.000000,0.000000,0.000000,0.000000,0.000000,0.000000,0.000000,0.000000,0.000000,0.000000,0.000000,0.000000,0.000000,0.000000,0.000000,0.000000,0.000000,0.000000,0.000000,0.000000,0.000000,0.000000,0.000000,0.000000,0.000000,0.000000,0.000000,0,0,0,0,0,0.000000,0,0,0,1,0,0,0.000000,0.000000,0.000000,0.000000,0.000000,0.000000,0,1.001508,0.000000,0.000000,0.000000,0.000000,0.000000,0.000000,-1.594545,1.030935,1.594545,-1.030935,0.000000,0,0
16245,-0.021201,-0.008700,-0.014101,0.999638,0.000000,0.000000,0.000000,0.018000,0.029000,-1.001000,3,11,1,11,37.5418091,127.0795005,34.888,0.705000,1.695000,0.011000,-0.015000,-0.017000,0.113000,1000,1000,1000,1000,1000.000000,0,0,0,0,0,1,0,0,0,4688,0.000000,0,0.000000,0.000000,0.000000,0.000000,0.000000,0.000000,0.000000,0.000000,0.000000,0.000000,0.000000,0.000000,0.000000,0.000000,0.000000,0.000000,0.000000,0.000000,0.000000,0.000000,0.000000,0.000000,0.000000,0.000000,0.000000,0.000000,0.000000,0.000000,0.000000,0.000000,0.000000,9.822163,0.000000,0.000000,0.000000,0.000000,0.000000,0.000000,0.000000,0.000000,0.000000,0.000000,0.000000,0.000000,0.000000,0.000000,0.000000,0.000000,0.000000,0.000000,0.000000,0.000000,0.000000,0.000000,0.000000,0.000000,0.000000,0.000000,0.000000,0.000000,0.000000,0.000000,0.000000,0.000000,0.000000,0,0,0,0,0,0.000000,0,0,0,1,0,0,0.000000,0.000000,0.000000,0.000000,0.000000,0.000000,0,1.001582,0.000000,0.000000,0.000000,0.000000,0.000000,0.000000,-1.594545,1.030935,1.594545,-1.030935,0.000000,0,0
16289,-0.021201,-0.008700,-0.014101,0.999638,0.000000,0.000000,0.000000,0.017000,0.029000,-1.003000,3,11,1,11,37.5418091,127.0795005,34.888,0.705000,1.695000,0.011000,-0.015000,-0.017000,0.113000,1000,1000,1000,1000,1000.000000,0,0,0,0,0,1,0,0,0,4732,0.000000,0,0.000000,0.000000,0.000000,0.000000,0.000000,0.000000,0.000000,0.000000,0.000000,0.000000,0.000000,0.000000,0.000000,0.000000,0.000000,0.000000,0.000000,0.000000,0.000000,0.000000,0.000000,0.000000,0.000000,0.000000,0.000000,0.000000,0.000000,0.000000,0.000000,0.000000,0.000000,9.841593,0.000000,0.000000,0.000000,0.000000,0.000000,0.000000,0.000000,0.000000,0.000000,0.000000,0.000000,0.000000,0.000000,0.000000,0.000000,0.000000,0.000000,0.000000,0.000000,0.000000,0.000000,0.000000,0.000000,0.000000,0.000000,0.000000,0.000000,0.000000,0.000000,0.000000,0.000000,0.000000,0.000000,0,0,0,0,0,0.000000,0,0,0,1,0,0,0.000000,0.000000,0.000000,0.000000,0.000000,0.000000,0,1.003563,0.000000,0.000000,0.000000,0.000000,0.000000,0.000000,-1.594545,1.030935,1.594545,-1.030935,0.000000,0,0
16333,-0.021201,-0.008700,-0.014101,0.999638,0.000000,0.000000,0.000000,0.018000,0.028000,-1.002000,3,11,1,11,37.5418090,127.0795006,34.890,0.702000,1.688000,0.010000,0.027000,-0.003000,0.126000,1000,1000,1000,1000,1000.000000,0,0,0,0,0,1,0,0,0,4776,0.000000,0,0.000000,0.000000,0.000000,0.000000,0.000000,0.000000,0.000000,0.000000,0.000000,0.000000,0.000000,0.000000,0.000000,0.000000,0.000000,0.000000,0.000000,0.000000,0.000000,0.000000,0.000000,0.000000,0.000000,0.000000,0.000000,0.000000,0.000000,0.000000,0.000000,0.000000,0.000000,9.831684,0.000000,0.000000,0.000000,0.000000,0.000000,0.000000,0.000000,0.000000,0.000000,0.000000,0.000000,0.000000,0.000000,0.000000,0.000000,0.000000,0.000000,0.000000,0.000000,0.000000,0.000000,0.000000,0.000000,0.000000,0.000000,0.000000,0.000000,0.000000,0.000000,0.000000,0.000000,0.000000,0.000000,0,0,0,0,0,0.000000,0,0,0,1,0,0,0.000000,0.000000,0.000000,0.000000,0.000000,0.000000,0,1.002553,0.000000,0.000000,0.000000,0.000000,0.000000,0.000000,-1.594545,1.030935,1.594545,-1.030935,0.000000,0,0
